Time,Pascal,alt,KMF,ax,ay,az,LaunchTime,ApoTime,LandTime15285,89707.00,509.51,446.57,0,16428,-864,1,0,0
15310,89707.00,509.51,501.67,220,1024,15544,1,0,0
15335,89707.00,509.51,506.13,144,-244,13968,1,0,0
15361,89707.00,509.51,507.44,172,-1076,14504,1,0,0
15385,89707.00,509.51,508.04,-324,-1828,15744,1,0,0
15411,89707.00,509.51,508.38,-332,-2664,16092,1,0,0
15435,89706.00,509.60,508.61,-68,-2912,14724,1,0,0
15461,89706.00,509.60,508.77,164,-3272,13928,1,0,0
15485,89706.00,509.60,508.89,-144,-3612,15104,1,0,0
15515,89707.00,509.51,508.97,-412,-4168,15620,1,0,0
15540,89707.00,509.51,509.03,-328,-4888,14396,1,0,0
15565,89707.00,509.51,509.08,-240,-4684,13808,1,0,0
15591,89708.00,509.42,509.11,0,-4904,13376,1,0,0
15617,89708.00,509.42,509.14,-348,-5644,14456,1,0,0
15642,89708.00,509.42,509.16,-552,-5876,15264,1,0,0
15668,89708.00,509.42,509.18,-460,-5856,14116,1,0,0
15693,89708.00,509.42,509.20,-24,-5328,13324,1,0,0
15719,89707.00,509.51,509.22,-92,-5772,13456,1,0,0
15744,89707.00,509.51,509.23,-576,-6124,14660,1,0,0
15773,89707.00,509.51,509.25,-980,-6716,15204,1,0,0
15806,89707.00,509.51,509.26,-668,-6648,13372,1,0,0
15832,89706.00,509.60,509.28,-528,-6396,13484,1,0,0
15857,89706.00,509.60,509.30,-568,-6576,13592,1,0,0
15883,89706.00,509.60,509.31,-712,-6920,14432,1,0,0
15907,89706.00,509.60,509.33,-684,-7068,13900,1,0,0
15933,89706.00,509.60,509.34,-784,-7168,14176,1,0,0
15959,89706.00,509.60,509.35,-584,-7064,13676,1,0,0
15983,89706.00,509.60,509.36,-428,-6872,12648,1,0,0
16009,89706.00,509.60,509.37,-668,-7072,13212,1,0,0
16038,89706.00,509.60,509.38,-1068,-7744,14548,1,0,0
16064,89706.00,509.60,509.39,-856,-7536,14128,1,0,0
16089,89706.00,509.60,509.40,-628,-7340,12944,1,0,0
16114,89706.00,509.60,509.40,-416,-7208,12932,1,0,0
16140,89706.00,509.60,509.41,-524,-7308,12836,1,0,0
16164,89706.00,509.60,509.42,-904,-7980,13764,1,0,0
16190,89706.00,509.60,509.42,-1004,-8196,14192,1,0,0
16216,89706.00,509.60,509.43,-780,-7708,13404,1,0,0
16241,89706.00,509.60,509.43,-472,-7348,12352,1,0,0
16271,89707.00,509.51,509.44,-984,-7984,13664,1,0,0
16295,89707.00,509.51,509.44,-1116,-8140,14172,1,0,0
16321,89707.00,509.51,509.44,-972,-7848,13224,1,0,0
16347,89707.00,509.51,509.44,-656,-7752,12760,1,0,0
16372,89707.00,509.51,509.44,-848,-7956,12996,1,0,0
16397,89707.00,509.51,509.45,-892,-8048,13408,1,0,0
16422,89707.00,509.51,509.45,-928,-8068,13508,1,0,0
16448,89707.00,509.51,509.45,-832,-8180,13320,1,0,0
16473,89707.00,509.51,509.45,-836,-8000,12728,1,0,0
16498,89707.00,509.51,509.45,-876,-8184,12892,1,0,0
16528,89708.00,509.42,509.45,-1088,-8348,13464,1,0,0
16553,89708.00,509.42,509.45,-1156,-8624,13164,1,0,0
16579,89708.00,509.42,509.45,-988,-8664,13132,1,0,0
16605,89708.00,509.42,509.45,-756,-8212,12840,1,0,0
16630,89708.00,509.42,509.45,-552,-8280,12256,1,0,0
16655,89708.00,509.42,509.45,-768,-8716,12904,1,0,0
16680,89708.00,509.42,509.45,-1288,-9468,13428,1,0,0
16706,89708.00,509.42,509.45,-824,-8896,12404,1,0,0
16732,89708.00,509.42,509.45,-680,-8552,11796,1,0,0
16757,89708.00,509.42,509.45,-1032,-8836,12228,1,0,0
16794,89707.00,509.51,509.45,-996,-9300,13420,1,0,0
16820,89707.00,509.51,509.45,-1264,-9372,12480,1,0,0
16844,89707.00,509.51,509.45,-952,-9268,12104,1,0,0
16870,89706.00,509.60,509.45,-900,-9344,12136,1,0,0
16896,89706.00,509.60,509.46,-992,-9400,12508,1,0,0
16920,89706.00,509.60,509.46,-1276,-9616,12892,1,0,0
16946,89706.00,509.60,509.46,-1240,-9628,12268,1,0,0
16971,89706.00,509.60,509.46,-1084,-9444,11832,1,0,0
16997,89707.00,509.51,509.46,-1032,-9548,11852,1,0,0
17026,89706.00,509.60,509.47,-1228,-9668,11892,1,0,0
17051,89707.00,509.51,509.47,-1428,-10004,12352,1,0,0
17077,89707.00,509.51,509.47,-1256,-9884,12116,1,0,0
17102,89707.00,509.51,509.47,-1072,-9604,11516,1,0,0
17127,89707.00,509.51,509.47,-1192,-9860,11520,1,0,0
17153,89707.00,509.51,509.47,-1312,-10164,12056,1,0,0
17178,89707.00,509.51,509.47,-1188,-9988,11432,1,0,0
17204,89707.00,509.51,509.47,-1224,-9964,11672,1,0,0
17228,89707.00,509.51,509.47,-1388,-10184,12208,1,0,0
17254,89707.00,509.51,509.47,-1420,-10008,11800,1,0,0
17284,89707.00,509.51,509.47,-1052,-9880,11116,1,0,0
17309,89707.00,509.51,509.47,-612,-9820,12664,1,0,0
17335,89706.00,509.60,509.47,-84,-9812,15368,1,0,0
17368,89706.00,509.60,509.48,8,-8944,15376,1,0,0
17392,89707.00,509.51,509.48,184,-8028,12628,1,0,0
17418,89707.00,509.51,509.48,-3616,-11484,22468,1,0,0
17443,89706.00,509.60,509.48,-7108,-14888,32767,1,0,0
17469,89706.00,509.60,509.48,-6460,-13944,28212,1,0,0
17494,89706.00,509.60,509.48,-3284,-9512,20868,1,0,0
17523,89705.00,509.70,509.49,1040,-3760,13528,1,0,0
17549,89705.00,509.70,509.49,2576,-1668,13356,1,0,0
17574,89705.00,509.70,509.49,2696,-2560,9788,1,0,0
17599,89704.00,509.79,509.49,4284,-1888,7112,1,0,0
17625,89704.00,509.79,509.50,5604,-536,5376,1,0,0
17650,89704.00,509.79,509.50,5444,2280,4380,1,0,0
17676,89704.00,509.79,509.51,5516,8716,7444,1,0,0
17700,89704.00,509.79,509.51,6840,12824,17600,1,0,0
17726,89704.00,509.79,509.51,5044,7140,22816,1,0,0
17752,89704.00,509.79,509.52,3660,744,5616,1,0,0
17781,89704.00,509.79,509.52,7032,3256,-2008,1,0,0
17806,89704.00,509.79,509.52,9164,5080,-1020,1,0,0
17831,89704.00,509.79,509.52,7404,2076,-2988,1,0,0
17857,89704.00,509.79,509.53,6680,1532,-3680,1,0,0
17882,89704.00,509.79,509.53,6652,3516,-4232,1,0,0
17907,89704.00,509.79,509.53,7744,6664,-8884,1,0,0
17933,89704.00,509.79,509.54,7184,6904,-9000,1,0,0
17957,89704.00,509.79,509.54,5460,5312,-7152,1,0,0
17983,89704.00,509.79,509.54,5364,9876,-7092,1,0,0
18008,89704.00,509.79,509.55,6944,15192,-7332,1,0,0
18037,89704.00,509.79,509.55,5060,13900,-8256,1,0,0
18063,89705.00,509.70,509.55,3780,13144,-2636,1,0,0
18087,89705.00,509.70,509.55,2680,17628,-2320,1,0,0
18113,89705.00,509.70,509.55,3344,23728,488,1,0,0
18139,89705.00,509.70,509.55,2800,28788,4664,1,0,0
18163,89706.00,509.60,509.56,1728,25088,7692,1,0,0
18189,89706.00,509.60,509.56,380,22508,11420,1,0,0
18214,89706.00,509.60,509.56,680,20776,15308,1,0,0
18239,89707.00,509.51,509.56,216,13672,11988,1,0,0
18265,89707.00,509.51,509.56,-916,7520,14432,1,0,0
18301,89707.00,509.51,509.55,-720,4868,17816,1,0,0
18335,89707.00,509.51,509.55,-1792,1040,14252,1,0,0
18359,89708.00,509.42,509.55,-1612,88,14852,1,0,0
18382,89708.00,509.42,509.55,-1596,-792,16032,1,0,0
18407,89708.00,509.42,509.55,-2196,-2656,13888,1,0,0
18430,89708.00,509.42,509.55,-2160,-2668,12564,1,0,0
18455,89708.00,509.42,509.55,-2028,-1580,13688,1,0,0
18479,89708.00,509.42,509.55,-2956,-1604,15568,1,0,0
18503,89708.00,509.42,509.55,-4876,-5416,23552,1,0,0
18531,89708.00,509.42,509.54,2700,-2376,16304,1,0,0
18554,89708.00,509.42,509.54,352,-3388,5868,1,0,0
18579,89708.00,509.42,509.54,-1872,-3788,11424,1,0,0
18603,89708.00,509.42,509.54,-2132,-2892,15808,1,0,0
18627,89708.00,509.42,509.54,-1512,-1260,17068,1,0,0
18651,89708.00,509.42,509.54,-1088,-1808,18276,1,0,0
18675,89708.00,509.42,509.54,-3032,-4872,21000,1,0,0
18699,89708.00,509.42,509.54,-7652,-9220,32012,1,0,0
18722,89708.00,509.42,509.54,-11140,-13076,32767,1,0,0
18747,89708.00,509.42,509.53,-13032,-11876,32767,1,0,0
18775,89708.00,509.42,509.53,-11024,-7016,32767,1,0,0
18799,89708.00,509.42,509.53,-7404,-2792,26832,1,0,0
18823,89707.00,509.51,509.53,-6800,-4536,14604,1,0,0
18847,89707.00,509.51,509.53,-7952,-7936,8392,1,0,0
18871,89707.00,509.51,509.53,-6388,-8244,596,1,0,0
18894,89707.00,509.51,509.53,-6648,-4852,-4112,1,0,0
18919,89707.00,509.51,509.53,-3780,-3568,-9676,1,0,0
18942,89707.00,509.51,509.53,3036,1284,-11756,1,0,0
18967,89707.00,509.51,509.53,7576,8192,-3728,1,0,0
18995,89707.00,509.51,509.53,10260,7236,-3524,1,0,0
19018,89706.00,509.60,509.53,10136,3652,-4096,1,0,0
19043,89706.00,509.60,509.53,10352,2984,3412,1,0,0
19066,89706.00,509.60,509.53,11656,4720,10376,1,0,0
19090,89705.00,509.70,509.53,12780,6680,6548,1,0,0
19115,89705.00,509.70,509.53,14288,6532,636,1,0,0
19138,89706.00,509.60,509.54,14172,5592,3092,1,0,0
19162,89706.00,509.60,509.54,14000,4940,8544,1,0,0
19186,89706.00,509.60,509.54,13092,3268,11660,1,0,0
19210,89706.00,509.60,509.54,13208,2736,7888,1,0,0
19237,89706.00,509.60,509.54,13736,3580,4500,1,0,0
19262,89706.00,509.60,509.54,13360,2496,7000,1,0,0
19286,89706.00,509.60,509.54,12936,948,9872,1,0,0
19309,89706.00,509.60,509.54,12364,-340,9196,1,0,0
19334,89706.00,509.60,509.54,12284,-564,8284,1,0,0
19357,89706.00,509.60,509.54,12996,176,8080,1,0,0
19381,89707.00,509.51,509.54,13040,192,8192,1,0,0
19405,89707.00,509.51,509.54,12704,-384,8956,1,0,0
19429,89706.00,509.60,509.54,12128,-972,10016,1,0,0
19452,89707.00,509.51,509.54,12408,-1240,10676,1,0,0
19480,89707.00,509.51,509.54,12184,-1048,11072,1,0,0
19505,89707.00,509.51,509.54,12356,-344,10312,1,0,0
19528,89707.00,509.51,509.54,11936,108,10156,1,0,0
19553,89707.00,509.51,509.54,11604,-92,11428,1,0,0
19576,89707.00,509.51,509.54,11576,-328,11340,1,0,0
19600,89707.00,509.51,509.54,11156,-264,11676,1,0,0
19624,89707.00,509.51,509.54,11824,28,11640,1,0,0
19648,89707.00,509.51,509.54,11580,-116,11856,1,0,0
19681,89707.00,509.51,509.54,11496,-108,11156,1,0,0
19705,89706.00,509.60,509.54,11128,-28,10848,1,0,0
19733,89706.00,509.60,509.54,11164,184,12008,1,0,0
19766,89706.00,509.60,509.54,11300,-820,10620,1,0,0
19789,89706.00,509.60,509.54,10296,-268,11140,1,0,0
19814,89706.00,509.60,509.54,10904,432,10760,1,0,0
19837,89706.00,509.60,509.54,10144,624,11976,1,0,0
19861,89706.00,509.60,509.54,11056,540,11128,1,0,0
19886,89706.00,509.60,509.54,11596,812,10480,1,0,0
19909,89706.00,509.60,509.54,12028,1120,10276,1,0,0
19933,89706.00,509.60,509.54,11724,908,10568,1,0,0
19957,89706.00,509.60,509.54,11804,712,10916,1,0,0
19979,89706.00,509.60,509.54,11860,300,11676,1,0,0
20002,89706.00,509.60,509.54,12168,288,11252,1,0,0
20026,89706.00,509.60,509.54,11584,940,10912,1,0,0
20050,89706.00,509.60,509.54,11168,524,10936,1,0,0
20074,89706.00,509.60,509.54,10772,256,11784,1,0,0
20098,89706.00,509.60,509.55,10800,168,11680,1,0,0
20122,89706.00,509.60,509.55,11196,1000,10920,1,0,0
20146,89706.00,509.60,509.55,11000,928,10820,1,0,0
20169,89707.00,509.51,509.55,10768,684,11688,1,0,0
20198,89707.00,509.51,509.55,10492,360,11832,1,0,0
20221,89707.00,509.51,509.55,10432,436,11708,1,0,0
20245,89707.00,509.51,509.55,10380,608,11756,1,0,0
20270,89707.00,509.51,509.54,10320,216,11964,1,0,0
20293,89707.00,509.51,509.54,10356,108,12080,1,0,0
20317,89707.00,509.51,509.54,10276,-200,12156,1,0,0
20341,89707.00,509.51,509.54,10200,-292,11696,1,0,0
20365,89707.00,509.51,509.54,10192,172,11532,1,0,0
20388,89706.00,509.60,509.54,10284,-24,11748,1,0,0
20413,89706.00,509.60,509.54,9888,-156,12332,1,0,0
20441,89706.00,509.60,509.55,9884,-288,11984,1,0,0
20464,89706.00,509.60,509.55,10044,60,12096,1,0,0
20489,89706.00,509.60,509.55,9988,136,12244,1,0,0
20512,89706.00,509.60,509.55,9892,76,12340,1,0,0
20536,89706.00,509.60,509.55,9896,276,12444,1,0,0
20559,89706.00,509.60,509.55,10036,396,12052,1,0,0
20584,89706.00,509.60,509.55,9900,300,11912,1,0,0
20608,89706.00,509.60,509.55,9832,4,12012,1,0,0
20631,89706.00,509.60,509.55,9508,-320,11880,1,0,0
20656,89706.00,509.60,509.55,9744,372,12012,1,0,0
20683,89706.00,509.60,509.55,9624,504,12276,1,0,0
20707,89706.00,509.60,509.55,9496,328,12256,1,0,0
20730,89706.00,509.60,509.55,9456,292,11804,1,0,0
20754,89706.00,509.60,509.55,9560,352,12668,1,0,0
20779,89705.00,509.70,509.55,9580,276,13152,1,0,0
20802,89705.00,509.70,509.55,9668,72,13072,1,0,0
20826,89705.00,509.70,509.55,9836,276,13124,1,0,0
20850,89706.00,509.60,509.55,9864,180,14024,1,0,0
20874,89706.00,509.60,509.55,9916,104,14528,1,0,0
20897,89706.00,509.60,509.55,9872,324,13952,1,0,0
20925,89707.00,509.51,509.55,9780,368,13344,1,0,0
20948,89707.00,509.51,509.55,9224,568,13344,1,0,0
20973,89707.00,509.51,509.55,9184,1296,13076,1,0,0
20997,89707.00,509.51,509.55,9556,2524,10124,1,0,0
21020,89707.00,509.51,509.55,9708,3932,8256,1,0,0
21045,89707.00,509.51,509.55,8804,3304,5404,1,0,0
21078,89707.00,509.51,509.55,7196,808,7848,1,0,0
21101,89707.00,509.51,509.55,6468,-180,9140,1,0,0
21125,89707.00,509.51,509.55,7304,1532,6188,1,0,0
21149,89707.00,509.51,509.55,5656,1468,10192,1,0,0
21185,89707.00,509.51,509.55,4980,-2336,18780,1,0,0
21210,89707.00,509.51,509.55,6448,-2520,5456,1,0,0
21233,89707.00,509.51,509.55,8896,-120,5576,1,0,0
21257,89707.00,509.51,509.55,8412,-220,17212,1,0,0
21281,89706.00,509.60,509.55,6012,-5660,14292,1,0,0
21305,89706.00,509.60,509.55,4292,-9016,9020,1,0,0
21328,89706.00,509.60,509.55,4404,-10412,13444,1,0,0
21353,89706.00,509.60,509.55,1620,-14140,13988,1,0,0
21377,89706.00,509.60,509.55,2396,-13704,14312,1,0,0
21400,89706.00,509.60,509.55,3016,-12180,15608,1,0,0
21428,89706.00,509.60,509.55,3360,-9976,14740,1,0,0
21452,89706.00,509.60,509.55,2816,-8988,14272,1,0,0
21476,89707.00,509.51,509.55,2444,-9020,16460,1,0,0
21499,89707.00,509.51,509.55,2396,-8368,16496,1,0,0
21524,89707.00,509.51,509.55,3920,-6312,15284,1,0,0
21548,89707.00,509.51,509.55,4468,-3672,14836,1,0,0
21571,89707.00,509.51,509.55,2716,-3248,14256,1,0,0
21596,89707.00,509.51,509.55,1124,-5572,14056,1,0,0
21619,89707.00,509.51,509.55,556,-7276,13136,1,0,0
21643,89707.00,509.51,509.55,764,-5976,14732,1,0,0
21670,89707.00,509.51,509.55,480,-4384,13872,1,0,0
21695,89708.00,509.42,509.55,128,-2408,15268,1,0,0
21719,89708.00,509.42,509.55,-2008,-6132,16208,1,0,0
21742,89708.00,509.42,509.55,-2192,-7812,14804,1,0,0
21767,89708.00,509.42,509.55,204,-3172,11968,1,0,0
21790,89708.00,509.42,509.55,744,-696,11672,1,0,0
21814,89708.00,509.42,509.55,-716,-1076,14352,1,0,0
21838,89708.00,509.42,509.55,-2300,-4192,16976,1,0,0
21862,89708.00,509.42,509.55,-2272,-3912,18824,1,0,0
21890,89708.00,509.42,509.54,-4588,-7244,23760,1,0,0
21913,89708.00,509.42,509.54,-3228,-4176,18440,1,0,0
21938,89708.00,509.42,509.54,-5140,-2836,18316,1,0,0
21961,89708.00,509.42,509.54,-3012,-2408,16144,1,0,0
21986,89708.00,509.42,509.54,-3068,-3788,15664,1,0,0
22009,89707.00,509.51,509.54,-3352,-3768,16848,1,0,0
22033,89707.00,509.51,509.54,-3200,-2936,17052,1,0,0
22057,89707.00,509.51,509.54,-3728,-3448,16316,1,0,0
22081,89707.00,509.51,509.54,-3388,-3720,18364,1,0,0
22105,89707.00,509.51,509.54,-3292,-3620,17632,1,0,0
22132,89707.00,509.51,509.54,-2384,-2816,16004,1,0,0
22157,89708.00,509.42,509.54,-2400,-3368,15220,1,0,0
22180,89708.00,509.42,509.54,-2016,-3588,15208,1,0,0
22204,89708.00,509.42,509.54,-1644,-2956,14912,1,0,0
22228,89708.00,509.42,509.54,-1264,-2888,14056,1,0,0
22252,89708.00,509.42,509.54,-1088,-3012,14028,1,0,0
22276,89708.00,509.42,509.54,-816,-3372,14752,1,0,0
22300,89708.00,509.42,509.54,-636,-3080,14192,1,0,0
22324,89707.00,509.51,509.54,4,-2800,13680,1,0,0
22351,89707.00,509.51,509.54,-492,-3940,14012,1,0,0
22375,89708.00,509.42,509.54,-620,-4292,14668,1,0,0
22398,89708.00,509.42,509.54,-64,-3824,15048,1,0,0
22423,89708.00,509.42,509.54,44,-3348,14168,1,0,0
22447,89708.00,509.42,509.54,-256,-2724,15512,1,0,0
22479,89707.00,509.51,509.54,328,-4948,13464,1,0,0
22503,89707.00,509.51,509.54,244,-3768,15204,1,0,0
22528,89707.00,509.51,509.54,236,-4284,14080,1,0,0
22551,89707.00,509.51,509.54,348,-4440,13488,1,0,0
22575,89708.00,509.42,509.53,972,-3860,14452,1,0,0
22611,89708.00,509.42,509.53,812,-4484,14708,1,0,0
22635,89708.00,509.42,509.53,1080,-3832,14492,1,0,0
22659,89708.00,509.42,509.53,792,-4532,14308,1,0,0
22683,89708.00,509.42,509.53,840,-4692,14944,1,0,0
22707,89708.00,509.42,509.53,1276,-4232,15360,1,0,0
22730,89708.00,509.42,509.53,1536,-4104,14568,1,0,0
22755,89709.00,509.32,509.53,1800,-4116,13572,1,0,0
22778,89709.00,509.32,509.53,1916,-3948,14424,1,0,0
22802,89708.00,509.42,509.53,1640,-4560,14332,1,0,0
22827,89708.00,509.42,509.53,1688,-4444,13848,1,0,0
22853,89708.00,509.42,509.53,2000,-4104,14088,1,0,0
22878,89709.00,509.32,509.53,1804,-4808,14780,1,0,0
22901,89709.00,509.32,509.53,1936,-4596,14880,1,0,0
22925,89709.00,509.32,509.53,2140,-4268,14344,1,0,0
22948,89709.00,509.32,509.53,1840,-4808,14188,1,0,0
22972,89709.00,509.32,509.52,1916,-4860,15044,1,0,0
22995,89709.00,509.32,509.52,2268,-4492,15728,1,0,0
23019,89708.00,509.42,509.52,2080,-4684,14652,1,0,0
23043,89708.00,509.42,509.52,2240,-4504,14016,1,0,0
23066,89708.00,509.42,509.52,2056,-4652,14400,1,0,0
23094,89708.00,509.42,509.52,2332,-4792,14948,1,0,0
23117,89709.00,509.32,509.52,2588,-4396,15376,1,0,0
23141,89709.00,509.32,509.52,2424,-4592,13884,1,0,0
23165,89709.00,509.32,509.52,2388,-4736,13468,1,0,0
23189,89709.00,509.32,509.52,2776,-4324,14692,1,0,0
23213,89709.00,509.32,509.52,2732,-4400,14912,1,0,0
23236,89709.00,509.32,509.52,2528,-4604,14348,1,0,0
23260,89710.00,509.23,509.52,2600,-4660,15196,1,0,0
23283,89710.00,509.23,509.51,2400,-5092,15616,1,0,0
23311,89710.00,509.23,509.51,2988,-4348,14568,1,0,0
23335,89710.00,509.23,509.51,3276,-4060,14360,1,0,0
23359,89710.00,509.23,509.51,3208,-4224,14148,1,0,0
23384,89710.00,509.23,509.51,3308,-4184,15104,1,0,0
23407,89710.00,509.23,509.51,3384,-3968,14768,1,0,0
23432,89710.00,509.23,509.51,3544,-4228,12992,1,0,0
23455,89710.00,509.23,509.51,3772,-3928,14344,1,0,0
23480,89711.00,509.14,509.51,4076,-3568,14756,1,0,0
23503,89711.00,509.14,509.50,3776,-3940,14100,1,0,0
23528,89711.00,509.14,509.50,3928,-4064,14396,1,0,0
23556,89711.00,509.14,509.50,3968,-4036,13876,1,0,0
23580,89711.00,509.14,509.50,3820,-4148,14684,1,0,0
23604,89711.00,509.14,509.50,4156,-4016,14924,1,0,0
23628,89711.00,509.14,509.50,4116,-4076,13996,1,0,0
23652,89711.00,509.14,509.49,4204,-4040,14552,1,0,0
23676,89711.00,509.14,509.49,3992,-4156,14404,1,0,0
23700,89712.00,509.05,509.49,4484,-3616,13520,1,0,0
23725,89712.00,509.05,509.49,4384,-3904,14312,1,0,0
23748,89712.00,509.05,509.49,4560,-3932,15652,1,0,0
23773,89712.00,509.05,509.49,4580,-4112,14872,1,0,0
23800,89712.00,509.05,509.48,4588,-4328,13860,1,0,0
23825,89712.00,509.05,509.48,4828,-4032,14096,1,0,0
23858,89712.00,509.05,509.48,5260,-3608,13820,1,0,0
23881,89712.00,509.05,509.48,5320,-3816,13760,1,0,0
23906,89712.00,509.05,509.48,4924,-4456,14896,1,0,0
23929,89712.00,509.05,509.47,5240,-3796,14360,1,0,0
23954,89712.00,509.05,509.47,5332,-3768,14548,1,0,0
23977,89713.00,508.95,509.47,5324,-3904,14928,1,0,0
24002,89713.00,508.95,509.47,4728,-4464,15436,1,0,0
24039,89713.00,509.05,509.46,5532,-3568,13472,1,0,0
24064,89713.00,508.95,509.46,5660,-3724,13652,1,0,0
24087,89713.00,508.95,509.46,5616,-3764,13676,1,0,0
24112,89713.00,508.95,509.46,5832,-3780,13904,1,0,0
24135,89713.00,508.95,509.46,6080,-3576,13200,1,0,0
24160,89713.00,508.95,509.45,6104,-4268,13124,1,0,0
24183,89712.00,509.05,509.45,5924,-4212,13920,1,0,0
24208,89712.00,509.05,509.45,6020,-3636,14020,1,0,0
24231,89712.00,509.05,509.45,6316,-4008,13544,1,0,0
24256,89712.00,509.05,509.45,6552,-3796,12728,1,0,0
24284,89712.00,509.05,509.44,6632,-3680,13484,1,0,0
24308,89712.00,509.05,509.44,6476,-3924,14096,1,0,0
24332,89711.00,509.14,509.44,6572,-3852,14304,1,0,0
24356,89711.00,509.14,509.44,6512,-4304,12952,1,0,0
24380,89711.00,509.14,509.44,6612,-3804,13432,1,0,0
24404,89711.00,509.14,509.44,6864,-3712,13140,1,0,0
24428,89711.00,509.14,509.43,6776,-4112,13756,1,0,0
24453,89711.00,509.14,509.43,6752,-4048,13540,1,0,0
24476,89711.00,509.14,509.43,6936,-3792,13212,1,0,0
24501,89711.00,509.14,509.43,6924,-4052,13628,1,0,0
24528,89711.00,509.14,509.43,6996,-4080,13936,1,0,0
24552,89711.00,509.14,509.43,7328,-3852,13256,1,0,0
24577,89711.00,509.14,509.43,7488,-3480,13024,1,0,0
24600,89711.00,509.14,509.42,7852,-3152,12916,1,0,0
24625,89711.00,509.14,509.42,7696,-3740,12768,1,0,0
24648,89711.00,509.14,509.42,7420,-4384,13052,1,0,0
24673,89710.00,509.23,509.42,7812,-3692,12796,1,0,0
24696,89711.00,509.14,509.42,7884,-3444,13236,1,0,0
24721,89711.00,509.14,509.42,7784,-3752,13172,1,0,0
24749,89711.00,509.14,509.42,7956,-3620,12208,1,0,0
24772,89711.00,509.14,509.42,7876,-3936,12828,1,0,0
24797,89711.00,509.14,509.41,8328,-3540,12724,1,0,0
24820,89711.00,509.14,509.41,8284,-3552,11948,1,0,0
24845,89711.00,509.14,509.41,8220,-3852,12648,1,0,0
24868,89710.00,509.23,509.41,8052,-4168,13904,1,0,0
24893,89710.00,509.23,509.41,8212,-3964,13408,1,0,0
24916,89710.00,509.23,509.41,8488,-3988,12456,1,0,0
24941,89710.00,509.23,509.41,8496,-3648,12392,1,0,0
24965,89710.00,509.23,509.41,8576,-3560,12596,1,0,0
24993,89711.00,509.14,509.41,8440,-3924,12864,1,0,0
25017,89711.00,509.14,509.40,8468,-4288,13016,1,0,0
25040,89711.00,509.14,509.40,8664,-3652,12284,1,0,0
25065,89710.00,509.23,509.40,9204,-3316,11828,1,0,0
25089,89710.00,509.23,509.40,9080,-3748,11432,1,0,0
25113,89710.00,509.23,509.40,8868,-4068,12344,1,0,0
25137,89710.00,509.23,509.40,8880,-4260,12204,1,0,0
25161,89709.00,509.32,509.40,9308,-3388,11752,1,0,0
25185,89709.00,509.32,509.40,9352,-3220,11700,1,0,0
25209,89709.00,509.32,509.40,9436,-3516,11832,1,0,0
25231,89709.00,509.32,509.40,9312,-3504,12044,1,0,0
25264,89709.00,509.32,509.40,9596,-3264,11932,1,0,0
25287,89709.00,509.32,509.40,9672,-3120,11880,1,0,0
25312,89709.00,509.32,509.40,9704,-3476,12116,1,0,0
25335,89709.00,509.32,509.40,9584,-3760,12252,1,0,0
25360,89709.00,509.32,509.40,9856,-3188,11384,1,0,0
25383,89710.00,509.23,509.40,9896,-3144,11344,1,0,0
25408,89710.00,509.23,509.39,10624,-3136,11320,1,0,0
25442,89710.00,509.23,509.39,10140,-3584,10864,1,0,0
25469,89710.00,509.23,509.39,10472,-2952,11932,1,0,0
25493,89710.00,509.23,509.39,10172,-2840,11704,1,0,0
25518,89710.00,509.23,509.39,10092,-3148,10976,1,0,0
25541,89710.00,509.23,509.39,10040,-3620,12032,1,0,0
25566,89710.00,509.23,509.39,10176,-2920,11176,1,0,0
25589,89710.00,509.23,509.39,10040,-3232,10672,1,0,0
25614,89710.00,509.23,509.39,9996,-3228,12912,1,0,0
25637,89710.00,509.23,509.39,9952,-3236,12256,1,0,0
25662,89710.00,509.23,509.39,10416,-2952,11364,1,0,0
25686,89710.00,509.23,509.39,9956,-3760,10188,1,0,0
25713,89710.00,509.23,509.39,10272,-3116,13280,1,0,0
25738,89710.00,509.23,509.39,10684,-2332,11388,1,0,0
25761,89710.00,509.23,509.38,10460,-3296,9940,1,0,0
25786,89710.00,509.23,509.38,10196,-3728,12116,1,0,0
25809,89709.00,509.32,509.38,10992,-1812,12128,1,0,0
25834,89709.00,509.32,509.38,11308,-1596,9664,1,0,0
25858,89709.00,509.32,509.38,10972,-2404,10192,1,0,0
25882,89709.00,509.32,509.38,10640,-3256,12424,1,0,0
25906,89709.00,509.32,509.38,10764,-2864,11880,1,0,0
25933,89709.00,509.32,509.38,11348,-1880,10416,1,0,0
25958,89709.00,509.32,509.38,11792,-2132,10836,1,0,0
25981,89709.00,509.32,509.38,11480,-2632,11308,1,0,0
26006,89709.00,509.32,509.38,11116,-2732,10752,1,0,0
26030,89708.00,509.42,509.38,11248,-2272,10440,1,0,0
26054,89708.00,509.42,509.38,11196,-2264,10788,1,0,0
26078,89708.00,509.42,509.38,11204,-2276,10696,1,0,0
26102,89708.00,509.42,509.38,11312,-1952,10088,1,0,0
26126,89707.00,509.51,509.38,11520,-2064,10416,1,0,0
26150,89707.00,509.51,509.38,11108,-2736,11044,1,0,0
26178,89707.00,509.51,509.38,11660,-2308,10780,1,0,0
26202,89708.00,509.42,509.38,11276,-2752,10004,1,0,0
26226,89708.00,509.42,509.38,11380,-2372,10532,1,0,0
26250,89708.00,509.42,509.38,11340,-2520,11424,1,0,0
26274,89707.00,509.51,509.39,11548,-2440,11736,1,0,0
26298,89707.00,509.51,509.39,11560,-2332,9772,1,0,0
26322,89707.00,509.51,509.39,11632,-2148,9672,1,0,0
26346,89707.00,509.51,509.39,11624,-1956,11204,1,0,0
26370,89707.00,509.51,509.39,11656,-1836,11252,1,0,0
26398,89707.00,509.51,509.39,11532,-2416,10624,1,0,0
26422,89706.00,509.60,509.39,10876,-2568,10472,1,0,0
26446,89707.00,509.51,509.39,11696,-2360,10828,1,0,0
26470,89707.00,509.51,509.39,11080,-2512,12680,1,0,0
26493,89707.00,509.51,509.39,11368,-2568,13352,1,0,0
26518,89708.00,509.42,509.39,10880,-4536,10708,1,0,0
26542,89708.00,509.42,509.39,10260,-5632,8032,1,0,0
26566,89708.00,509.42,509.39,11072,-5036,6564,1,0,0
26590,89708.00,509.42,509.39,11824,-4944,7736,1,0,0
26614,89708.00,509.42,509.39,11288,-5696,9208,1,0,0
26642,89709.00,509.32,509.39,11196,-5836,10388,1,0,0
26675,89709.00,509.32,509.39,11352,-5632,9840,1,0,0
26698,89709.00,509.32,509.39,11416,-5876,10664,1,0,0
26723,89709.00,509.32,509.39,11200,-6860,9924,1,0,0
26746,89709.00,509.32,509.39,11440,-6308,8404,1,0,0
26771,89708.00,509.42,509.39,11332,-6592,7668,1,0,0
26795,89708.00,509.42,509.39,11764,-6704,9476,1,0,0
26818,89708.00,509.42,509.39,11312,-6580,9216,1,0,0
26852,89709.00,509.32,509.39,11816,-5692,8000,1,0,0
26880,89709.00,509.32,509.39,11792,-5240,7492,1,0,0
26904,89709.00,509.32,509.39,11364,-6284,9452,1,0,0
26928,89709.00,509.32,509.39,10896,-6464,10080,1,0,0
26952,89709.00,509.32,509.39,11616,-5284,9372,1,0,0
26976,89709.00,509.32,509.39,11556,-4984,8568,1,0,0
26999,89709.00,509.32,509.39,11028,-6120,10268,1,0,0
27024,89709.00,509.32,509.39,11108,-5864,11272,1,0,0
27047,89709.00,509.32,509.39,11788,-4940,9436,1,0,0
27072,89709.00,509.32,509.39,11876,-4924,9028,1,0,0
27096,89708.00,509.42,509.39,11656,-5160,9476,1,0,0
27123,89708.00,509.42,509.39,11580,-5452,9416,1,0,0
27148,89709.00,509.32,509.39,11308,-5860,9744,1,0,0
27171,89709.00,509.32,509.39,11512,-5676,9876,1,0,0
27196,89709.00,509.32,509.39,11512,-5776,8684,1,0,0
27219,89709.00,509.32,509.39,11580,-5012,9124,1,0,0
27243,89709.00,509.32,509.39,11684,-4980,9684,1,0,0
27268,89709.00,509.32,509.39,11328,-5468,9572,1,0,0
27291,89709.00,509.32,509.39,11612,-5452,9568,1,0,0
27316,89709.00,509.32,509.39,11556,-5212,9196,1,0,0
27339,89709.00,509.32,509.39,11824,-4820,8784,1,0,0
27367,89709.00,509.32,509.39,11748,-4676,9792,1,0,0
27392,89709.00,509.32,509.39,11808,-4836,9080,1,0,0
27415,89709.00,509.32,509.39,11668,-4928,9060,1,0,0
27439,89709.00,509.32,509.38,11604,-4848,9840,1,0,0
27463,89709.00,509.32,509.38,11656,-4852,9648,1,0,0
27487,89709.00,509.32,509.38,11696,-4656,9348,1,0,0
27511,89709.00,509.32,509.38,11768,-4704,9472,1,0,0
27535,89709.00,509.32,509.38,11536,-5228,9532,1,0,0
27558,89708.00,509.42,509.38,11660,-4664,10156,1,0,0
27587,89708.00,509.42,509.38,11724,-4416,9736,1,0,0
27611,89708.00,509.42,509.38,11692,-4532,9368,1,0,0
27634,89708.00,509.42,509.38,11740,-4432,9832,1,0,0
27659,89708.00,509.42,509.38,11676,-4448,9548,1,0,0
27682,89709.00,509.32,509.38,11600,-4556,9684,1,0,0
27707,89709.00,509.32,509.38,11716,-4452,9672,1,0,0
27730,89709.00,509.32,509.38,11804,-4068,9868,1,0,0
27754,89709.00,509.32,509.38,11608,-4172,9764,1,0,0
27779,89708.00,509.42,509.38,11656,-4056,10164,1,0,0
27802,89708.00,509.42,509.38,11560,-4144,9856,1,0,0
27830,89707.00,509.51,509.38,11752,-4124,9552,1,0,0
27854,89707.00,509.51,509.38,11828,-4008,10156,1,0,0
27878,89708.00,509.51,509.39,11760,-4008,9824,1,0,0
27902,89708.00,509.42,509.39,11808,-4116,9276,1,0,0
27926,89708.00,509.42,509.39,11568,-4328,9804,1,0,0
27950,89708.00,509.42,509.39,11520,-4184,10524,1,0,0
27974,89708.00,509.42,509.39,11636,-4116,9636,1,0,0
27998,89708.00,509.42,509.39,11448,-4232,9276,1,0,0
28022,89707.00,509.51,509.39,11420,-4160,11016,1,0,0
28046,89707.00,509.51,509.39,11372,-3776,10292,1,0,0
28077,89708.00,509.42,509.39,12072,-3300,9248,1,0,0
28100,89708.00,509.42,509.39,11972,-3416,10592,1,0,0
28125,89708.00,509.42,509.39,11532,-4064,10180,1,0,0
28148,89707.00,509.51,509.39,11532,-3744,10212,1,0,0
28172,89707.00,509.51,509.39,11696,-3280,9976,1,0,0
28196,89707.00,509.51,509.39,11600,-3300,9676,1,0,0
28220,89708.00,509.42,509.39,11552,-3084,9804,1,0,0
28244,89708.00,509.42,509.39,11844,-3108,9952,1,0,0
28277,89708.00,509.42,509.39,11892,-2844,9868,1,0,0
28306,89708.00,509.42,509.39,11964,-2904,9972,1,0,0
28329,89709.00,509.32,509.39,11940,-2820,10216,1,0,0
28353,89709.00,509.32,509.39,11992,-2816,10264,1,0,0
28378,89709.00,509.32,509.39,11916,-2952,10436,1,0,0
28401,89709.00,509.32,509.39,11960,-2588,10148,1,0,0
28426,89708.00,509.42,509.39,11944,-2612,9752,1,0,0
28449,89708.00,509.42,509.39,11616,-3180,10852,1,0,0
28473,89708.00,509.42,509.39,11580,-3036,10964,1,0,0
28497,89708.00,509.42,509.39,11856,-2676,10180,1,0,0
28521,89708.00,509.42,509.39,11868,-3012,10200,1,0,0
28549,89708.00,509.42,509.39,11784,-2996,10680,1,0,0
28573,89709.00,509.32,509.39,11992,-2832,10008,1,0,0
28597,89709.00,509.32,509.39,11960,-2768,9772,1,0,0
28621,89709.00,509.32,509.39,11988,-2328,10208,1,0,0
28645,89709.00,509.32,509.39,11800,-3200,10600,1,0,0
28668,89709.00,509.32,509.39,12176,-2440,9832,1,0,0
28693,89709.00,509.32,509.39,12088,-2676,9336,1,0,0
28717,89708.00,509.42,509.39,12016,-2232,9984,1,0,0
28740,89708.00,509.42,509.39,11544,-3284,10296,1,0,0
28769,89708.00,509.42,509.39,12396,-2152,9040,1,0,0
28792,89708.00,509.42,509.39,11648,-2988,9356,1,0,0
28816,89709.00,509.32,509.39,11764,-2768,10456,1,0,0
28840,89709.00,509.32,509.39,11496,-2936,10156,1,0,0
28864,89708.00,509.42,509.39,12056,-2560,9680,1,0,0
28888,89708.00,509.42,509.39,11752,-2768,10084,1,0,0
28912,89708.00,509.42,509.39,11512,-3184,10716,1,0,0
28936,89708.00,509.42,509.39,11656,-2972,10740,1,0,0
28960,89708.00,509.42,509.39,11624,-2648,10216,1,0,0
28984,89708.00,509.42,509.39,11532,-2860,9876,1,0,0
29011,89708.00,509.42,509.39,11756,-2304,10676,1,0,0
29036,89709.00,509.32,509.39,11700,-2884,9996,1,0,0
29060,89709.00,509.32,509.39,11872,-2344,9588,1,0,0
29083,89709.00,509.32,509.39,11860,-2320,9988,1,0,0
29108,89709.00,509.32,509.39,11432,-2800,10300,1,0,0
29131,89709.00,509.32,509.39,11480,-2700,10428,1,0,0
29155,89709.00,509.32,509.39,12000,-2412,10564,1,0,0
29179,89708.00,509.42,509.39,12140,-2260,9636,1,0,0
29203,89708.00,509.42,509.39,11928,-2644,10232,1,0,0
29231,89708.00,509.42,509.39,12152,-2288,10280,1,0,0
29255,89708.00,509.42,509.39,11876,-2424,9744,1,0,0
29279,89708.00,509.42,509.39,11884,-2132,10516,1,0,0
29302,89708.00,509.42,509.39,11680,-2548,10448,1,0,0
29327,89709.00,509.32,509.39,11972,-2212,10244,1,0,0
29350,89709.00,509.32,509.39,11692,-2180,10232,1,0,0
29374,89709.00,509.32,509.39,11416,-2040,10772,1,0,0
29399,89710.00,509.23,509.39,11668,-2208,9996,1,0,0
29422,89710.00,509.23,509.39,11948,-1908,9996,1,0,0
29446,89710.00,509.23,509.39,12024,-1724,9724,1,0,0
29483,89711.00,509.14,509.38,11536,-2432,11104,1,0,0
29507,89711.00,509.14,509.38,11600,-2448,11112,1,0,0
29531,89711.00,509.14,509.38,11812,-1632,10368,1,0,0
29554,89711.00,509.14,509.38,11640,-1828,10200,1,0,0
29579,89711.00,509.14,509.38,11404,-2256,11088,1,0,0
29602,89711.00,509.14,509.38,11480,-2316,11116,1,0,0
29627,89711.00,509.14,509.38,11808,-1704,10376,1,0,0
29650,89710.00,509.23,509.38,11552,-1964,10560,1,0,0
29684,89710.00,509.23,509.38,11672,-2020,10540,1,0,0
29712,89710.00,509.23,509.38,11556,-2208,10456,1,0,0
29735,89710.00,509.23,509.38,11672,-2396,10800,1,0,0
29760,89710.00,509.23,509.38,11308,-2360,11260,1,0,0
29784,89710.00,509.23,509.38,11580,-1692,11224,1,0,0
29807,89710.00,509.23,509.38,11756,-1592,10648,1,0,0
29832,89710.00,509.23,509.38,11560,-2056,10692,1,0,0
29855,89710.00,509.23,509.38,11744,-1860,10960,1,0,0
29879,89710.00,509.23,509.38,11400,-1760,10576,1,0,0
29903,89711.00,509.14,509.37,11628,-1916,10612,1,0,0
29927,89710.00,509.23,509.37,11560,-1764,10808,1,0,0
29955,89710.00,509.23,509.37,11400,-2024,10632,1,0,0
29978,89710.00,509.23,509.37,11424,-1524,10552,1,0,0
30003,89710.00,509.23,509.37,11164,-2116,10288,1,0,0
30026,89710.00,509.23,509.37,11332,-1820,10360,1,0,0
30051,89710.00,509.23,509.37,11176,-1936,10200,1,0,0
30074,89710.00,509.23,509.37,11276,-1404,10312,1,0,0
30098,89710.00,509.23,509.37,11260,-1696,9808,1,0,0
30123,89710.00,509.23,509.37,11220,-1680,10204,1,0,0
30146,89711.00,509.14,509.37,10972,-2064,11236,1,0,0
30174,89711.00,509.14,509.37,10924,-2344,12196,1,0,0
30197,89711.00,509.14,509.37,10908,-1956,11364,1,0,0
30222,89710.00,509.23,509.37,11200,-1496,10720,1,0,0
30245,89710.00,509.23,509.37,11416,-1752,11300,1,0,0
30269,89710.00,509.23,509.37,11260,-1996,11668,1,0,0
30294,89710.00,509.23,509.37,11476,-1468,10832,1,0,0
30317,89710.00,509.23,509.37,11476,-1484,10204,1,0,0
30341,89710.00,509.23,509.37,11332,-1644,10808,1,0,0
30365,89709.00,509.32,509.37,10808,-2104,11936,1,0,0
30389,89709.00,509.32,509.37,11072,-1520,11388,1,0,0
30416,89709.00,509.32,509.37,11360,-1192,10336,1,0,0
30440,89709.00,509.32,509.37,10704,-1836,11064,1,0,0
30464,89710.00,509.23,509.37,10892,-1556,11252,1,0,0
30487,89710.00,509.23,509.36,10616,-1620,11096,1,0,0
30512,89710.00,509.23,509.36,10996,-1416,10660,1,0,0
30535,89710.00,509.23,509.36,10924,-1584,10676,1,0,0
30559,89710.00,509.23,509.36,10880,-1284,11356,1,0,0
30582,89709.00,509.32,509.36,10936,-1476,11128,1,0,0
30606,89710.00,509.23,509.36,10896,-1172,11252,1,0,0
30789,89709.00,509.32,509.36,10660,-1684,11252,1,0,0
30815,89709.00,509.32,509.36,10448,-1796,10928,1,0,0
30841,89709.00,509.32,509.36,10840,-1608,11692,1,0,0
30867,89710.00,509.23,509.36,10272,-2068,11916,1,0,0
30894,89710.00,509.23,509.36,10592,-1384,11680,1,0,0
30919,89710.00,509.23,509.36,10624,-1072,11096,1,0,0
30946,89711.00,509.14,509.36,10396,-1388,11276,1,0,0
30971,89711.00,509.14,509.36,10400,-1288,11792,1,0,0
31006,89711.00,509.14,509.36,10212,-1200,10972,1,0,0
31033,89711.00,509.14,509.36,10144,-1404,10896,1,0,0
31063,89712.00,509.05,509.36,9908,-1832,11108,1,0,0
31089,89712.00,509.05,509.36,10316,-1056,11132,1,0,0
31116,89712.00,509.05,509.36,10468,-808,10968,1,0,0
31142,89712.00,509.05,509.35,11664,-792,11192,1,0,0
31169,89712.00,509.05,509.35,10228,-520,12296,1,0,0
31195,89712.00,509.05,509.35,10420,16,11904,1,0,0
31221,89712.00,509.05,509.35,9956,-428,12020,1,0,0
31248,89712.00,509.05,509.35,10248,-196,11032,1,0,0
31285,89711.00,509.14,509.35,9924,72,10772,1,0,0
31314,89712.00,509.05,509.35,10084,404,12652,1,0,0
31341,89712.00,509.05,509.35,10000,-136,12676,1,0,0
31368,89711.00,509.14,509.35,9456,-920,12100,1,0,0
31394,89711.00,509.14,509.35,9936,-492,11760,1,0,0
31421,89711.00,509.14,509.35,9812,-204,12880,1,0,0
31447,89711.00,509.14,509.35,9168,-736,13628,1,0,0
31473,89711.00,509.14,509.34,8892,-724,13008,1,0,0
31500,89711.00,509.14,509.34,9244,548,12240,1,0,0
31526,89711.00,509.14,509.34,8924,656,13164,1,0,0
31552,89711.00,509.14,509.34,8840,-148,13588,1,0,0
31583,89711.00,509.14,509.34,8268,352,13024,1,0,0
31609,89711.00,509.14,509.34,7784,-380,12960,1,0,0
31636,89711.00,509.14,509.34,7592,-728,14832,1,0,0
31662,89711.00,509.14,509.34,7712,-184,15008,1,0,0
31688,89711.00,509.14,509.34,7188,-792,14364,1,0,0
31715,89711.00,509.14,509.34,6120,-2680,13660,1,0,0
31741,89711.00,509.14,509.34,5568,-3744,13772,1,0,0
31768,89711.00,509.14,509.34,5032,-4692,13544,1,0,0
31794,89711.00,509.14,509.34,3508,-6760,13056,1,0,0
31820,89711.00,509.14,509.34,3480,-7224,12152,1,0,0
31851,89711.00,509.14,509.34,3120,-6964,12112,1,0,0
31878,89711.00,509.14,509.33,868,-9496,12508,1,0,0
31903,89711.00,509.14,509.33,-260,-12260,13656,1,0,0
31930,89711.00,509.14,509.33,-124,-12020,14444,1,0,0
31956,89711.00,509.14,509.33,1072,-9244,13648,1,0,0
31983,89711.00,509.14,509.33,1308,-8732,11936,1,0,0
32010,89711.00,509.14,509.33,448,-9796,11360,1,0,0
32036,89711.00,509.14,509.33,608,-9272,12308,1,0,0
32062,89711.00,509.14,509.33,704,-8876,13284,1,0,0
32089,89711.00,509.14,509.33,612,-8612,13480,1,0,0
32119,89712.00,509.05,509.33,804,-8144,12488,1,0,0
32145,89712.00,509.05,509.33,532,-7688,12564,1,0,0
32172,89712.00,509.05,509.33,-460,-9336,15288,1,0,0
32198,89711.00,509.14,509.33,-1320,-10664,15804,1,0,0
32225,89711.00,509.14,509.33,-1100,-9824,14196,1,0,0
32251,89711.00,509.14,509.33,-704,-8344,11188,1,0,0
32278,89711.00,509.14,509.32,-784,-7984,11256,1,0,0
32304,89711.00,509.14,509.32,-1192,-8832,11844,1,0,0
32330,89711.00,509.14,509.32,-1684,-8544,12600,1,0,0
32361,89711.00,509.14,509.32,-1372,-7792,12256,1,0,0
32388,89711.00,509.14,509.32,-1980,-8492,12484,1,0,0
32413,89711.00,509.14,509.32,-2292,-8600,12640,1,0,0
32440,89711.00,509.14,509.32,2340,-5028,13948,1,0,0
32466,89711.00,509.14,509.32,544,-7620,12344,1,0,0
32493,89711.00,509.14,509.32,-4092,-8040,15120,1,0,0
32520,89711.00,509.14,509.32,-3060,-7384,14576,1,0,0
32555,89711.00,509.14,509.32,-3016,-6136,13684,1,0,0
32581,89711.00,509.14,509.32,-2280,-5748,12496,1,0,0
32608,89711.00,509.14,509.32,-2884,-5332,12320,1,0,0
32638,89711.00,509.14,509.32,-3216,-4812,13200,1,0,0
32664,89711.00,509.14,509.32,-2228,-4164,14076,1,0,0
32691,89711.00,509.14,509.32,-2400,-3092,14360,1,0,0
32717,89711.00,509.14,509.31,-3832,-2788,14268,1,0,0
32744,89712.00,509.05,509.31,-3648,-1452,15112,1,0,0
32771,89712.00,509.05,509.31,-3996,-1984,16412,1,0,0
32807,89712.00,509.05,509.31,-2832,-1096,12840,1,0,0
32833,89712.00,509.05,509.31,-4848,-2004,11972,1,0,0
32860,89712.00,509.05,509.31,-2828,-868,16252,1,0,0
32890,89712.00,509.05,509.31,-3504,-3068,16328,1,0,0
32917,89711.00,509.14,509.31,-7564,-7860,18772,1,0,0
32944,89711.00,509.14,509.31,-8028,-6544,32767,1,0,0
32969,89711.00,509.14,509.31,-11660,-9400,32767,1,0,0
32996,89711.00,509.14,509.31,-13256,-12248,29092,1,0,0
33022,89711.00,509.14,509.31,-10680,-7688,25124,1,0,0
33049,89711.00,509.14,509.31,-7692,-4088,20840,1,0,0
33076,89711.00,509.14,509.31,-6796,-5528,14324,1,0,0
33102,89711.00,509.14,509.31,-4968,-5108,10400,1,0,0
33129,89710.00,509.23,509.30,-3348,-2440,7116,1,0,0
33159,89710.00,509.23,509.30,2436,760,4960,1,0,0
33185,89710.00,509.23,509.30,1252,-52,5600,1,0,0
33211,89710.00,509.23,509.30,4880,-728,-1444,1,0,0
33238,89709.00,509.32,509.30,7532,1952,-4516,1,0,0
33264,89709.00,509.32,509.30,9492,3268,-8748,1,0,0
33291,89709.00,509.32,509.30,10436,4156,-8136,1,0,0
33317,89710.00,509.23,509.30,8584,1596,-3232,1,0,0
33343,89710.00,509.23,509.30,7520,-132,264,1,0,0
33370,89710.00,509.23,509.30,7772,-36,2456,1,0,0
33396,89710.00,509.23,509.30,6736,464,6388,1,0,0
33426,89710.00,509.23,509.30,5136,-728,11424,1,0,0
33453,89710.00,509.23,509.30,2436,-2932,13864,1,0,0
33479,89711.00,509.14,509.30,-340,-5016,16988,1,0,0
33505,89711.00,509.14,509.30,-684,-3408,22244,1,0,0
33531,89711.00,509.14,509.30,208,-2440,23348,1,0,0
33558,89712.00,509.05,509.30,-644,-4144,19224,1,0,0
33585,89712.00,509.05,509.30,-1448,-5192,15428,1,0,0
33610,89712.00,509.05,509.30,-2140,-4140,17240,1,0,0
33637,89712.00,509.05,509.30,-3660,-5876,19344,1,0,0
33664,89712.00,509.05,509.30,-3704,-5708,19392,1,0,0
33694,89713.00,508.95,509.30,-2300,-3280,15556,1,0,0
33720,89713.00,508.95,509.29,-852,-3096,12788,1,0,0
33746,89713.00,508.95,509.29,-4332,-2608,18512,1,0,0
33773,89713.00,508.95,509.29,-2968,-4532,17656,1,0,0
33800,89714.00,508.86,509.29,-4604,-4484,14984,1,0,0
33825,89714.00,508.86,509.29,-4740,-3672,14836,1,0,0
33852,89713.00,508.95,509.29,-4816,-4372,17180,1,0,0
33879,89713.00,508.95,509.29,-5076,-4556,15328,1,0,0
33905,89713.00,508.95,509.29,-4928,-4092,14164,1,0,0
33935,89713.00,508.95,509.28,-4948,-4396,13820,1,0,0
33961,89713.00,508.95,509.28,-5328,-4256,14612,1,0,0
33988,89713.00,508.95,509.28,-4808,-4592,13176,1,0,0
34015,89713.00,508.95,509.28,-6680,-6156,16872,1,0,0
34041,89713.00,508.95,509.28,-7052,-3516,17376,1,0,0
34076,89714.00,508.86,509.28,-6012,-4060,14924,1,0,0
34103,89713.00,508.95,509.28,-5124,-3244,13620,1,0,0
34129,89713.00,508.95,509.28,-4388,-2432,13460,1,0,0
34156,89713.00,508.95,509.28,-4936,-2284,13492,1,0,0
34182,89713.00,508.95,509.27,-5052,-1756,13440,1,0,0
34212,89713.00,508.95,509.27,-1956,-700,15248,1,0,0
34239,89713.00,508.95,509.27,-9308,-272,10112,1,0,0
34265,89713.00,508.95,509.27,-584,-68,15720,1,0,0
34291,89713.00,508.95,509.27,-2968,-80,15144,1,0,0
34318,89713.00,508.95,509.27,-3720,-1420,14328,1,0,0
34355,89713.00,508.95,509.27,-2672,-776,14456,1,0,0
34380,89713.00,508.95,509.27,-4152,-1288,15240,1,0,0
34407,89713.00,508.95,509.27,-2488,-408,15572,1,0,0
34434,89713.00,508.95,509.26,-1800,-1104,14736,1,0,0
34463,89713.00,508.95,509.26,-1484,-796,13328,1,0,0
34490,89713.00,508.95,509.26,-3348,-932,15724,1,0,0
34516,89713.00,508.95,509.26,-424,-804,14988,1,0,0
34543,89713.00,508.95,509.26,-1340,-748,15580,1,0,0
34569,89714.00,508.86,509.26,3028,-644,12452,1,0,0
34595,89715.00,508.77,509.26,-2196,-1276,16216,1,0,0
34622,89715.00,508.77,509.25,-584,-1168,14920,1,0,0
34649,89715.00,508.77,509.25,-1428,-1432,15072,1,0,0
34674,89715.00,508.77,509.25,-872,-1072,15492,1,0,0
34701,89715.00,508.77,509.25,-1232,-1272,15144,1,0,0
34732,89714.00,508.77,509.25,-988,-1148,15316,1,0,0
34757,89714.00,508.86,509.25,-940,-1016,15268,1,0,0
34784,89714.00,508.86,509.24,-1132,-1168,15300,1,0,0
34810,89714.00,508.86,509.24,-972,-1196,15232,1,0,0
34836,89714.00,508.86,509.24,-1080,-1136,15320,1,0,0
34863,89715.00,508.77,509.24,-1016,-1140,15292,1,0,0
34889,89715.00,508.77,509.24,-1080,-1176,15288,1,0,0
34916,89715.00,508.77,509.24,-1168,-1152,15376,1,0,0
34942,89715.00,508.77,509.23,-1080,-1120,15356,1,0,0
34972,89715.00,508.77,509.23,-1068,-1104,15384,1,0,0
34999,89715.00,508.77,509.23,-1132,-1136,15360,1,0,0
35025,89715.00,508.77,509.23,-1080,-1136,15208,1,0,0
35051,89715.00,508.77,509.23,-944,-1052,15204,1,0,0
35078,89714.00,508.86,509.23,-1152,-1116,15544,1,0,0
35104,89714.00,508.86,509.22,-996,-1180,15344,1,0,0
35130,89714.00,508.86,509.22,-952,-964,15264,1,0,0
35156,89714.00,508.86,509.22,-1136,-1088,15412,1,0,0
35183,89714.00,508.86,509.22,-980,-1116,15264,1,0,0
35210,89714.00,508.86,509.22,-892,-1080,15320,1,0,0
35239,89713.00,508.95,509.22,-1036,-1152,15488,1,0,0
35266,89713.00,508.95,509.22,-1028,-1092,15408,1,0,0
35293,89713.00,508.95,509.21,-892,-1084,15184,1,0,0
35318,89713.00,508.95,509.21,-1020,-1188,15276,1,0,0
35345,89713.00,508.95,509.21,-1020,-1048,15276,1,0,0
35372,89713.00,508.95,509.21,-1108,-1124,15472,1,0,0
35397,89713.00,508.95,509.21,-964,-1116,15324,1,0,0
35424,89713.00,508.95,509.21,-1056,-1044,15332,1,0,0
35450,89713.00,508.95,509.21,-1116,-1120,15384,1,0,0
35480,89713.00,508.95,509.21,-1164,-1072,15332,1,0,0
35507,89713.00,508.95,509.21,-1104,-1156,15280,1,0,0
35533,89713.00,508.95,509.21,-984,-1024,15252,1,0,0
35560,89712.00,509.05,509.20,-960,-1116,15380,1,0,0
35586,89712.00,509.05,509.20,-1104,-1140,15392,1,0,0
35621,89712.00,509.05,509.20,-964,-1148,15244,1,0,0
35648,89712.00,509.05,509.20,-1212,-1084,15568,1,0,0
35674,89711.00,509.14,509.20,-976,-1064,15304,1,0,0
35700,89711.00,509.14,509.20,-992,-972,15212,1,0,0
35727,89711.00,509.14,509.20,-892,-1192,15268,1,0,0
35757,89711.00,509.14,509.20,-1004,-1128,15308,1,0,0
35783,89711.00,509.14,509.20,-812,-1088,15080,1,0,0
35810,89711.00,509.14,509.20,-1128,-1128,15344,1,0,0
35835,89711.00,509.14,509.20,-888,-1032,15448,1,0,0
35872,89711.00,509.14,509.20,-924,-1156,15200,1,0,0
35899,89711.00,509.14,509.20,-1056,-1136,15452,1,0,0
35926,89712.00,509.05,509.20,-1028,-1028,15488,1,0,0
35951,89712.00,509.05,509.20,-876,-1092,15244,1,0,0
35978,89712.00,509.05,509.20,-1020,-1232,15180,1,0,0
36004,89712.00,509.05,509.20,-784,-1080,15256,1,0,0
36034,89712.00,509.05,509.20,-952,-1076,15284,1,0,0
36061,89711.00,509.14,509.20,-1092,-1136,15292,1,0,0
36087,89711.00,509.14,509.20,-1048,-956,15284,1,0,0
36113,89711.00,509.14,509.20,-964,-1056,15324,1,0,0
36140,89711.00,509.14,509.20,-988,-1068,15264,1,0,0
36166,89710.00,509.14,509.20,-972,-1104,15364,1,0,0
36193,89710.00,509.23,509.20,-980,-1016,15356,1,0,0
36218,89710.00,509.23,509.20,-972,-1136,15128,1,0,0
36245,89711.00,509.14,509.20,-808,-988,15276,1,0,0
36275,89711.00,509.14,509.20,-984,-1068,15212,1,0,0
36301,89711.00,509.14,509.20,-940,-1004,15300,1,0,0
36328,89711.00,509.14,509.20,-884,-1024,15204,1,0,0
36354,89711.00,509.14,509.20,-1092,-1004,15400,1,0,0
36380,89711.00,509.14,509.19,-1024,-1072,15236,1,0,0
36407,89711.00,509.14,509.19,-920,-1016,15312,1,0,0
36433,89711.00,509.14,509.19,-1044,-1164,15452,1,0,0
36459,89712.00,509.05,509.19,-972,-1036,15204,1,0,0
36486,89712.00,509.05,509.19,-920,-1036,15280,1,0,0
36512,89712.00,509.05,509.19,-940,-1084,15248,1,0,0
36542,89712.00,509.05,509.19,-984,-1156,15276,1,0,0
36569,89712.00,509.05,509.19,-1020,-1020,15448,1,0,0
36595,89712.00,509.05,509.19,-1008,-1024,15300,1,0,0
36621,89712.00,509.05,509.19,-880,-992,15520,1,0,0
36647,89711.00,509.14,509.19,-928,-1116,15484,1,0,0
36674,89711.00,509.14,509.19,-916,-1064,15400,1,0,0
36700,89711.00,509.14,509.19,-880,-1104,15296,1,0,0
36726,89710.00,509.23,509.19,-1072,-1044,15312,1,0,0
36753,89711.00,509.14,509.19,-964,-972,15512,1,0,0
36779,89711.00,509.14,509.19,-896,-924,15232,1,0,0
36809,89711.00,509.14,509.19,-1112,-1000,15372,1,0,0
36836,89711.00,509.14,509.19,-964,-1048,15312,1,0,0
36861,89712.00,509.05,509.19,-1000,-1000,15396,1,0,0
36888,89712.00,509.05,509.19,-900,-1060,15436,1,0,0
36915,89712.00,509.05,509.19,-912,-968,15372,1,0,0
36940,89712.00,509.05,509.19,-940,-1088,15280,1,0,0
36967,89712.00,509.05,509.19,-908,-964,15304,1,0,0
