Time,Pascal,alt,KMF,ax,ay,az,LaunchTime,ApoTime,LandTime27160,89721.00,508.21,508.74,18360,32767,22100,1,0,0
27188,89721.00,508.21,508.74,784,-16156,16,1,0,0
27215,89722.00,508.12,508.74,728,-16184,328,1,0,0
27251,89722.00,508.12,508.74,880,-15992,1548,1,0,0
27279,89722.00,508.12,508.74,556,-16148,60,1,0,0
27307,89723.00,508.02,508.73,744,-16040,436,1,0,0
27334,89723.00,508.02,508.73,784,-16188,328,1,0,0
27362,89724.00,507.93,508.73,776,-16360,-144,1,0,0
27388,89723.00,508.02,508.73,660,-16004,520,1,0,0
27420,89723.00,508.02,508.73,964,-16200,-544,1,0,0
27448,89723.00,508.02,508.72,812,-16116,140,1,0,0
27475,89723.00,508.02,508.72,852,-16096,724,1,0,0
27503,89723.00,508.02,508.72,820,-16040,1040,1,0,0
27532,89724.00,508.02,508.72,772,-16292,340,1,0,0
27571,89724.00,507.93,508.71,928,-15996,700,1,0,0
27598,89724.00,507.93,508.71,988,-15912,1476,1,0,0
27626,89724.00,507.93,508.71,864,-16084,268,1,0,0
27654,89723.00,508.02,508.71,924,-16060,52,1,0,0
27681,89722.00,508.12,508.71,928,-16152,100,1,0,0
27713,89722.00,508.12,508.70,864,-16096,-88,1,0,0
27741,89722.00,508.12,508.70,972,-16116,208,1,0,0
27768,89721.00,508.21,508.70,868,-16144,352,1,0,0
27797,89721.00,508.21,508.70,716,-15612,340,1,0,0
27825,89722.00,508.12,508.70,2876,-16528,1780,1,0,0
27852,89722.00,508.12,508.69,924,-14320,3192,1,0,0
27880,89721.00,508.21,508.69,-2072,-14532,6360,1,0,0
27908,89721.00,508.21,508.69,-1100,-18344,6008,1,0,0
27936,89722.00,508.12,508.69,364,-16152,4372,1,0,0
27964,89722.00,508.12,508.69,876,-15504,3156,1,0,0
27996,89722.00,508.12,508.68,636,-15656,4816,1,0,0
28023,89722.00,508.12,508.68,520,-16308,4228,1,0,0
28051,89722.00,508.12,508.68,0,-16920,4260,1,0,0
28079,89721.00,508.21,508.68,872,-15604,4796,1,0,0
28106,89721.00,508.21,508.68,1108,-15376,3988,1,0,0
28135,89721.00,508.21,508.67,980,-15828,4476,1,0,0
28163,89721.00,508.21,508.67,932,-15840,3992,1,0,0
28190,89722.00,508.12,508.67,1372,-15420,3388,1,0,0
28218,89722.00,508.12,508.67,1128,-15876,3740,1,0,0
28246,89722.00,508.12,508.67,1180,-16136,3824,1,0,0
28277,89722.00,508.12,508.66,1836,-15468,3204,1,0,0
28306,89722.00,508.12,508.66,1536,-16100,3184,1,0,0
28334,89722.00,508.12,508.66,1716,-16072,2372,1,0,0
28361,89721.00,508.21,508.66,1548,-15932,2580,1,0,0
28389,89721.00,508.21,508.66,1548,-16600,3068,1,0,0
28417,89721.00,508.21,508.65,1720,-15968,2748,1,0,0
28445,89721.00,508.21,508.65,1860,-15800,2068,1,0,0
28473,89721.00,508.21,508.65,1868,-16152,1584,1,0,0
28500,89721.00,508.21,508.65,2144,-16236,1732,1,0,0
28528,89721.00,508.21,508.65,1728,-16784,2372,1,0,0
28560,89721.00,508.21,508.65,2184,-15760,1252,1,0,0
28589,89721.00,508.21,508.64,2228,-15736,3296,1,0,0
28616,89722.00,508.12,508.64,1936,-16672,2160,1,0,0
28644,89722.00,508.12,508.64,1596,-15960,3072,1,0,0
28672,89722.00,508.12,508.64,2888,-15360,3144,1,0,0
28699,89722.00,508.12,508.64,2720,-15632,2564,1,0,0
28728,89722.00,508.12,508.63,2880,-16128,3892,1,0,0
28755,89722.00,508.12,508.63,3500,-14876,2696,1,0,0
28783,89722.00,508.12,508.63,3704,-13544,3572,1,0,0
28815,89722.00,508.12,508.63,4768,-14300,5128,1,0,0
28843,89722.00,508.12,508.62,3860,-15136,4760,1,0,0
28879,89722.00,508.12,508.62,2984,-15192,4708,1,0,0
28907,89721.00,508.21,508.62,3604,-14524,4712,1,0,0
28935,89721.00,508.21,508.62,4624,-14652,5712,1,0,0
28963,89721.00,508.21,508.62,4364,-15172,7164,1,0,0
28991,89722.00,508.12,508.61,4348,-13872,7068,1,0,0
29019,89722.00,508.12,508.61,5376,-13624,5308,1,0,0
29046,89721.00,508.21,508.61,5412,-14044,6560,1,0,0
29074,89721.00,508.21,508.61,4800,-14064,6756,1,0,0
29106,89721.00,508.21,508.61,6536,-12608,5824,1,0,0
29133,89720.00,508.30,508.61,7092,-12564,4196,1,0,0
29172,89720.00,508.30,508.60,6336,-12204,4948,1,0,0
29201,89720.00,508.30,508.60,7976,-10712,5536,1,0,0
29229,89720.00,508.30,508.60,8196,-10500,6348,1,0,0
29256,89720.00,508.30,508.60,7488,-11836,8588,1,0,0
29284,89720.00,508.30,508.60,7844,-10492,6828,1,0,0
29312,89720.00,508.30,508.60,9164,-9204,6316,1,0,0
29339,89720.00,508.30,508.60,8900,-10144,9156,1,0,0
29368,89720.00,508.30,508.59,9176,-9340,8264,1,0,0
29400,89720.00,508.30,508.59,9864,-8580,7760,1,0,0
29427,89720.00,508.30,508.59,10032,-8544,8572,1,0,0
29455,89720.00,508.30,508.59,10040,-8548,8924,1,0,0
29483,89720.00,508.30,508.59,10464,-7944,8192,1,0,0
29510,89720.00,508.30,508.59,10744,-7452,7508,1,0,0
29538,89720.00,508.30,508.59,10796,-7492,8856,1,0,0
29566,89720.00,508.30,508.59,10568,-7772,9268,1,0,0
29594,89720.00,508.30,508.58,11152,-6968,7584,1,0,0
29622,89721.00,508.21,508.58,11112,-6632,8696,1,0,0
29654,89721.00,508.21,508.58,11148,-6644,9808,1,0,0
29681,89721.00,508.21,508.58,11556,-5612,9044,1,0,0
29709,89722.00,508.12,508.58,11552,-5344,9000,1,0,0
29736,89722.00,508.12,508.57,11336,-5444,9480,1,0,0
29765,89722.00,508.12,508.57,11724,-4368,9620,1,0,0
29793,89722.00,508.12,508.57,11468,-4776,10044,1,0,0
29820,89722.00,508.12,508.57,11820,-3844,9592,1,0,0
29848,89723.00,508.02,508.57,11384,-3400,10268,1,0,0
29876,89722.00,508.12,508.56,11552,-3424,10968,1,0,0
29903,89723.00,508.02,508.56,12088,-3320,9376,1,0,0
29935,89722.00,508.12,508.56,11636,-3360,9156,1,0,0
29964,89722.00,508.12,508.56,12176,-2496,10496,1,0,0
29991,89722.00,508.12,508.55,12248,-2556,8984,1,0,0
30019,89723.00,508.02,508.55,12316,-2236,9608,1,0,0
30047,89723.00,508.02,508.55,12168,-2004,9584,1,0,0
30074,89723.00,508.02,508.55,12248,-2092,9296,1,0,0
30103,89723.00,508.02,508.54,12656,-780,9492,1,0,0
30131,89723.00,508.02,508.54,12276,-1100,9708,1,0,0
30158,89723.00,508.02,508.54,12096,-592,9852,1,0,0
30186,89723.00,508.02,508.54,13068,796,9080,1,0,0
30218,89723.00,508.02,508.53,12600,636,9568,1,0,0
30245,89723.00,508.02,508.53,12556,1160,9932,1,0,0
30273,89724.00,507.93,508.53,13272,2428,8332,1,0,0
30301,89724.00,507.93,508.52,12960,2300,8084,1,0,0
30328,89724.00,507.93,508.52,12852,2008,7924,1,0,0
30356,89724.00,507.93,508.52,13324,2488,8116,1,0,0
30384,89724.00,507.93,508.52,12596,2276,8600,1,0,0
30412,89724.00,507.93,508.51,12316,2868,9016,1,0,0
30440,89723.00,508.02,508.51,13044,4028,8844,1,0,0
30468,89723.00,508.02,508.51,12524,3944,7416,1,0,0
30509,89723.00,508.02,508.50,12816,4304,8116,1,0,0
30536,89723.00,508.02,508.50,12804,4204,7836,1,0,0
30564,89723.00,508.02,508.50,12460,4704,8292,1,0,0
30592,89723.00,508.02,508.50,12704,5396,7352,1,0,0
30619,89723.00,508.02,508.49,12992,4900,7296,1,0,0
30647,89723.00,508.02,508.49,12060,4200,8012,1,0,0
30674,89723.00,508.02,508.49,12668,5552,6772,1,0,0
30702,89722.00,508.12,508.49,8876,6656,8640,1,0,0
30730,89723.00,508.02,508.48,13424,6644,6756,1,0,0
30773,89723.00,508.02,508.48,12448,6692,6244,1,0,0
30800,89724.00,507.93,508.48,12188,6904,6532,1,0,0
30828,89724.00,507.93,508.48,10960,7348,6532,1,0,0
30856,89724.00,507.93,508.47,11096,7884,5920,1,0,0
30883,89724.00,507.93,508.47,10948,8316,6476,1,0,0
30911,89724.00,507.93,508.47,11444,7764,3700,1,0,0
30939,89724.00,507.93,508.46,11396,9368,3516,1,0,0
30967,89724.00,507.93,508.46,12376,10180,4624,1,0,0
30995,89724.00,507.93,508.46,12332,10752,3248,1,0,0
31023,89725.00,507.84,508.45,12872,12048,2724,1,0,0
31054,89726.00,507.74,508.45,11844,12432,1508,1,0,0
31082,89726.00,507.74,508.45,12388,11420,1568,1,0,0
31110,89726.00,507.74,508.44,14480,9832,68,1,0,0
31137,89726.00,507.74,508.44,10016,11028,3316,1,0,0
31165,89728.00,507.56,508.43,11540,10948,292,1,0,0
31193,89728.00,507.56,508.43,9492,11500,3380,1,0,0
31220,89728.00,507.56,508.42,10768,11040,2972,1,0,0
31249,89728.00,507.56,508.42,14944,12460,-3316,1,0,0
31277,89728.00,507.56,508.41,12140,13024,1872,1,0,0
31304,89727.00,507.65,508.40,10692,11784,1480,1,0,0
31336,89728.00,507.56,508.40,11056,13064,-248,1,0,0
31364,89728.00,507.56,508.39,10140,12912,1120,1,0,0
31391,89728.00,507.56,508.39,9960,13120,516,1,0,0
31419,89728.00,507.56,508.38,4428,12888,4668,1,0,0
31447,89728.00,507.56,508.38,14728,14352,-3764,1,0,0
31474,89728.00,507.56,508.37,10824,14804,2072,1,0,0
31502,89727.00,507.65,508.37,11076,14872,1200,1,0,0
31531,89728.00,507.56,508.36,12372,14816,-1400,1,0,0
31558,89728.00,507.56,508.36,11536,15632,-352,1,0,0
31586,89728.00,507.56,508.35,9384,14876,2256,1,0,0
31618,89728.00,507.56,508.34,12772,15836,-1064,1,0,0
31645,89727.00,507.65,508.34,11320,15192,-1384,1,0,0
31673,89727.00,507.65,508.33,10840,15076,2136,1,0,0
31700,89727.00,507.65,508.33,10888,15392,2604,1,0,0
31728,89727.00,507.65,508.32,11108,15300,764,1,0,0
31756,89727.00,507.65,508.32,10980,13312,764,1,0,0
31783,89727.00,507.65,508.31,10816,13076,3076,1,0,0
31811,89726.00,507.74,508.31,11048,12924,3708,1,0,0
31840,89726.00,507.74,508.31,11312,12820,1220,1,0,0
31870,89727.00,507.74,508.30,12192,13348,984,1,0,0
31899,89727.00,507.65,508.30,4140,14512,12988,1,0,0
31927,89727.00,507.65,508.29,10892,12024,2060,1,0,0
31954,89727.00,507.65,508.29,12784,13200,-16,1,0,0
31982,89726.00,507.74,508.28,12208,10896,776,1,0,0
32010,89726.00,507.74,508.28,11948,10172,1128,1,0,0
32037,89727.00,507.65,508.27,11780,8684,1260,1,0,0
32065,89727.00,507.65,508.27,12068,8216,2620,1,0,0
32102,89727.00,507.65,508.27,11712,7288,828,1,0,0
32130,89726.00,507.74,508.26,12948,6148,-2812,1,0,0
32161,89726.00,507.74,508.26,10660,6552,2784,1,0,0
32189,89726.00,507.74,508.25,12008,3372,540,1,0,0
32217,89726.00,507.74,508.25,9236,2024,3768,1,0,0
32244,89726.00,507.74,508.25,7012,2292,3352,1,0,0
32272,89725.00,507.84,508.24,4176,720,6904,1,0,0
32300,89725.00,507.84,508.24,6508,-1172,6436,1,0,0
32327,89726.00,507.74,508.23,4616,-6476,4824,1,0,0
32366,89726.00,507.74,508.23,2576,-4576,14104,1,0,0
32394,89725.00,507.84,508.23,3608,-2964,19588,1,0,0
32421,89725.00,507.84,508.22,1676,-6876,12532,1,0,0
32453,89725.00,507.84,508.22,-452,-7164,7260,1,0,0
32481,89725.00,507.84,508.22,4060,1300,18624,1,0,0
32508,89725.00,507.84,508.22,-1004,-2456,25328,1,0,0
32536,89727.00,507.65,508.21,-2648,-3764,18464,1,0,0
32564,89727.00,507.65,508.21,-6612,-4624,23104,1,0,0
32591,89727.00,507.65,508.20,-5336,-4296,23340,1,0,0
32619,89727.00,507.65,508.20,-3388,-3932,19728,1,0,0
32648,89727.00,507.65,508.19,-2844,-2340,18600,1,0,0
32675,89727.00,507.65,508.19,-3676,-4316,17076,1,0,0
32703,89728.00,507.56,508.18,-3596,-3824,18552,1,0,0
32735,89728.00,507.56,508.18,-3136,-1864,15716,1,0,0
32762,89728.00,507.56,508.17,-4728,-2452,14860,1,0,0
32790,89729.00,507.47,508.17,-5496,-2660,19724,1,0,0
32818,89728.00,507.56,508.16,-5668,-2868,18008,1,0,0
32845,89728.00,507.56,508.16,-4052,-5248,11008,1,0,0
32873,89728.00,507.56,508.15,3164,2796,10164,1,0,0
32901,89728.00,507.56,508.15,-3632,-1080,13364,1,0,0
32929,89728.00,507.56,508.14,-5744,-1556,12408,1,0,0
32957,89727.00,507.65,508.14,-4756,1744,32767,1,0,0
32989,89728.00,507.56,508.13,1756,564,8372,1,0,0
33016,89728.00,507.56,508.13,-6584,-568,24540,1,0,0
33044,89728.00,507.56,508.13,7192,696,8036,1,0,0
33072,89729.00,507.47,508.12,-2496,2164,20176,1,0,0
33099,89729.00,507.47,508.11,-13024,-6052,12236,1,0,0
33127,89729.00,507.47,508.11,0,-1812,15236,1,0,0
33155,89729.00,507.47,508.10,3608,-1092,10572,1,0,0
33182,89728.00,507.56,508.10,-1772,-1000,16064,1,0,0
33210,89728.00,507.56,508.09,-1268,-1156,15416,1,0,0
33238,89728.00,507.56,508.09,-928,-1028,15312,1,0,0
33269,89728.00,507.56,508.08,-1096,-1096,15320,1,0,0
33297,89728.00,507.56,508.08,-1028,-1028,15204,1,0,0
33325,89728.00,507.56,508.08,-1036,-1104,15292,1,0,0
33352,89727.00,507.65,508.07,-1052,-1120,15452,1,0,0
33380,89727.00,507.65,508.07,-1044,-1108,15300,1,0,0
33408,89727.00,507.65,508.06,-1140,-1056,15368,1,0,0
33436,89726.00,507.74,508.06,-940,-1076,15332,1,0,0
33464,89727.00,507.65,508.06,-816,-988,15256,1,0,0
33491,89727.00,507.65,508.06,-1052,-1108,15456,1,0,0
33522,89726.00,507.74,508.05,-984,-1024,15244,1,0,0
33551,89726.00,507.74,508.05,-900,-1188,15336,1,0,0
33579,89726.00,507.74,508.05,-904,-1144,15324,1,0,0
33606,89725.00,507.84,508.05,-972,-1008,15356,1,0,0
33634,89725.00,507.84,508.04,-876,-1024,15464,1,0,0
33661,89725.00,507.84,508.04,-1388,-1340,15780,1,0,0
33689,89725.00,507.84,508.04,-992,-1092,15312,1,0,0
33726,89724.00,507.93,508.04,-1044,-1004,15364,1,0,0
33754,89724.00,507.93,508.04,-932,-1024,15380,1,0,0
33781,89724.00,507.93,508.04,-912,-960,15332,1,0,0
33813,89725.00,507.84,508.04,-1044,-1036,15496,1,0,0
33841,89725.00,507.84,508.03,-948,-1100,15312,1,0,0
33868,89726.00,507.74,508.03,-904,-936,15396,1,0,0
33896,89726.00,507.74,508.03,-732,-968,15160,1,0,0
33924,89726.00,507.74,508.03,-900,-1148,15348,1,0,0
33963,89726.00,507.74,508.02,-988,-1000,15420,1,0,0
33990,89726.00,507.74,508.02,-852,-968,15304,1,0,0
34018,89726.00,507.74,508.02,-860,-1068,15232,1,0,0
34045,89727.00,507.65,508.02,-936,-1184,15312,1,0,0
34073,89727.00,507.65,508.01,-1016,-1016,15508,1,0,0
34105,89727.00,507.65,508.01,-936,-1096,15228,1,0,0
34132,89727.00,507.65,508.01,-952,-968,15324,1,0,0
34160,89727.00,507.65,508.01,-900,-1004,15376,1,0,0
34188,89728.00,507.56,508.00,-908,-1100,15404,1,0,0
34215,89727.00,507.65,508.00,-920,-1040,15256,1,0,0
34243,89727.00,507.65,508.00,-920,-972,15420,1,0,0
34271,89727.00,507.65,507.99,-920,-1000,15316,1,0,0
34298,89727.00,507.65,507.99,-852,-828,15092,1,0,0
34326,89727.00,507.65,507.99,-620,-976,15328,1,0,0
34358,89727.00,507.65,507.99,-1072,-1004,15620,1,0,0
34385,89727.00,507.65,507.98,-1020,-1008,15444,1,0,0
34413,89727.00,507.65,507.98,-844,-1056,15152,1,0,0
34441,89727.00,507.65,507.98,-516,-760,14724,1,0,0
34468,89727.00,507.65,507.97,-1568,-836,16576,1,0,0
34496,89727.00,507.65,507.97,-712,-872,15120,1,0,0
34524,89727.00,507.65,507.97,-944,-988,15324,1,0,0
34551,89727.00,507.65,507.97,-840,-1008,15312,1,0,0
34579,89727.00,507.65,507.96,-872,-1112,15332,1,0,0
34607,89727.00,507.65,507.96,-912,-1108,15392,1,0,0
34638,89727.00,507.65,507.96,-888,-968,15372,1,0,0
34666,89727.00,507.65,507.96,-920,-1040,15268,1,0,0
34694,89727.00,507.65,507.96,-1076,-984,15384,1,0,0
34721,89727.00,507.65,507.95,-880,-960,15436,1,0,0
34749,89728.00,507.56,507.95,-956,-1028,15340,1,0,0
34777,89727.00,507.56,507.95,-960,-1036,15292,1,0,0
34804,89727.00,507.65,507.94,-948,-996,15284,1,0,0
34832,89728.00,507.56,507.94,-944,-1100,15380,1,0,0
34860,89728.00,507.56,507.94,-748,-952,15292,1,0,0
34887,89728.00,507.56,507.94,-884,-1048,15268,1,0,0
34919,89728.00,507.56,507.93,-1044,-948,15488,1,0,0
34947,89728.00,507.56,507.93,-928,-936,15384,1,0,0
34974,89728.00,507.56,507.93,-956,-984,15368,1,0,0
35002,89728.00,507.56,507.92,-928,-1112,15412,1,0,0
35030,89728.00,507.56,507.92,-904,-1076,15380,1,0,0
35057,89728.00,507.56,507.92,-900,-1024,15380,1,0,0
35085,89728.00,507.56,507.92,-924,-936,15424,1,0,0
35112,89728.00,507.56,507.91,-776,-1052,15372,1,0,0
35140,89729.00,507.47,507.91,-844,-968,15436,1,0,0
35168,89729.00,507.47,507.91,-1000,-1004,15476,1,0,0
35200,89728.00,507.56,507.90,-856,-1004,15148,1,0,0
35227,89728.00,507.56,507.90,-940,-968,15304,1,0,0
35255,89728.00,507.56,507.90,-1036,-972,15252,1,0,0
35282,89728.00,507.56,507.90,-904,-1008,15308,1,0,0
35319,89729.00,507.47,507.89,-1012,-1052,15380,1,0,0
35347,89729.00,507.47,507.89,-844,-1004,15452,1,0,0
35375,89730.00,507.37,507.88,-920,-1076,15208,1,0,0
35402,89730.00,507.37,507.88,-964,-1044,15436,1,0,0
35430,89729.00,507.47,507.88,-908,-1104,15320,1,0,0
35462,89729.00,507.47,507.87,-872,-1052,15284,1,0,0
35489,89729.00,507.47,507.87,-884,-1036,15404,1,0,0
35517,89729.00,507.47,507.87,-808,-1008,15320,1,0,0
35555,89729.00,507.47,507.86,-896,-1072,15220,1,0,0
35582,89729.00,507.47,507.86,-1028,-972,15380,1,0,0
35610,89729.00,507.47,507.86,-952,-1020,15160,1,0,0
35638,89729.00,507.47,507.86,-856,-1052,15236,1,0,0
35665,89729.00,507.47,507.85,-892,-1032,15260,1,0,0
35693,89729.00,507.47,507.85,-996,-1112,15392,1,0,0
35721,89730.00,507.37,507.85,-896,-1084,15328,1,0,0
35752,89730.00,507.37,507.84,-944,-988,15308,1,0,0
35780,89730.00,507.37,507.84,-988,-960,15404,1,0,0
35807,89730.00,507.37,507.83,-856,-1020,15184,1,0,0
35834,89730.00,507.37,507.83,-924,-1168,15380,1,0,0
35862,89730.00,507.37,507.83,-852,-1008,15420,1,0,0
35890,89730.00,507.37,507.82,-808,-952,15228,1,0,0
35917,89730.00,507.37,507.82,-788,-1016,15272,1,0,0
35944,89730.00,507.37,507.82,-948,-1144,15412,1,0,0
35972,89730.00,507.37,507.81,-804,-1076,15292,1,0,0
35999,89729.00,507.47,507.81,-860,-1008,15240,1,0,0
36030,89729.00,507.47,507.81,-876,-1028,15388,1,0,0
36058,89730.00,507.37,507.80,-852,-1096,15372,1,0,0
36085,89729.00,507.47,507.80,-988,-972,15344,1,0,0
36113,89729.00,507.47,507.80,-860,-1116,15352,1,0,0
36141,89729.00,507.47,507.80,-824,-1024,15332,1,0,0
36168,89729.00,507.47,507.79,-808,-1032,15340,1,0,0
36195,89730.00,507.37,507.79,-964,-1088,15236,1,0,0
36222,89730.00,507.37,507.79,-896,-980,15204,1,0,0
36250,89730.00,507.37,507.78,-1012,-952,15284,1,0,0
36282,89730.00,507.37,507.78,-852,-1120,15324,1,0,0
36310,89730.00,507.37,507.78,-844,-864,15432,1,0,0
36337,89731.00,507.28,507.77,-852,-992,15252,1,0,0
36365,89730.00,507.37,507.77,-936,-1056,15304,1,0,0
36393,89730.00,507.37,507.77,-896,-1008,15372,1,0,0
36421,89730.00,507.37,507.76,-1312,-428,16004,1,0,0
36449,89730.00,507.37,507.76,-1512,-1156,15520,1,0,0
36476,89730.00,507.37,507.76,-1164,-1088,15460,1,0,0
36505,89730.00,507.37,507.76,-748,-892,15284,1,0,0
36533,89730.00,507.37,507.75,-784,-1336,15096,1,0,0
36564,89731.00,507.28,507.75,-840,-1020,15244,1,0,0
36592,89731.00,507.28,507.75,-976,-1032,15252,1,0,0
36620,89731.00,507.28,507.74,-1012,-1072,15476,1,0,0
36648,89732.00,507.19,507.74,-904,-1000,15376,1,0,0
36676,89732.00,507.19,507.73,-896,-936,15340,1,0,0
36704,89732.00,507.19,507.73,-968,-1056,15348,1,0,0
36731,89733.00,507.09,507.72,-920,-984,15276,1,0,0
36759,89733.00,507.09,507.72,-900,-996,15424,1,0,0
36788,89733.00,507.09,507.71,-964,-1084,15408,1,0,0
36815,89733.00,507.09,507.71,-972,-1092,15312,1,0,0
36847,89733.00,507.09,507.70,-944,-948,15504,1,0,0
36875,89732.00,507.19,507.70,-932,-1036,15444,1,0,0
36902,89732.00,507.19,507.69,-852,-1140,15372,1,0,0
36939,89732.00,507.19,507.69,-932,-1076,15340,1,0,0
36967,89732.00,507.19,507.69,-948,-1092,15396,1,0,0
36996,89732.00,507.19,507.68,-992,-1108,15444,1,0,0
37023,89733.00,507.09,507.68,-876,-1068,15320,1,0,0
37051,89733.00,507.09,507.67,-940,-1120,15384,1,0,0
37079,89733.00,507.09,507.67,-1048,-1016,15436,1,0,0
37110,89733.00,507.09,507.66,-924,-1056,15280,1,0,0
37150,89732.00,507.19,507.66,-864,-984,15264,1,0,0
37178,89732.00,507.19,507.66,-996,-936,15360,1,0,0
37206,89732.00,507.19,507.65,-924,-1020,15468,1,0,0
37233,89732.00,507.19,507.65,-916,-1004,15396,1,0,0
37261,89732.00,507.19,507.64,-852,-1028,15404,1,0,0
37289,89732.00,507.19,507.64,-808,-1068,15296,1,0,0
37317,89732.00,507.19,507.64,-828,-1100,15348,1,0,0
37345,89732.00,507.19,507.63,-964,-972,15312,1,0,0
37372,89732.00,507.19,507.63,-900,-1072,15420,1,0,0
37404,89733.00,507.09,507.62,-944,-1056,15184,1,0,0
37432,89733.00,507.09,507.62,-944,-1108,15332,1,0,0
37459,89733.00,507.09,507.62,-848,-976,15448,1,0,0
37488,89733.00,507.09,507.61,-920,-1112,15292,1,0,0
37516,89734.00,507.00,507.61,-904,-1104,15388,1,0,0
37543,89734.00,507.00,507.60,-884,-1116,15268,1,0,0
37571,89734.00,507.00,507.60,-968,-1072,15184,1,0,0
37599,89734.00,507.00,507.59,-872,-980,15368,1,0,0
37626,89734.00,507.00,507.59,-884,-1104,15372,1,0,0
37655,89735.00,506.91,507.58,-884,-1020,15404,1,0,0
37687,89735.00,506.91,507.57,-868,-1068,15320,1,0,0
37714,89735.00,506.91,507.57,-940,-1056,15252,1,0,0
37742,89735.00,506.91,507.56,-796,-1140,15176,1,0,0
37770,89735.00,506.91,507.56,-836,-1060,15348,1,0,0
37797,89735.00,506.91,507.55,-1004,-988,15340,1,0,0
37825,89735.00,506.91,507.55,-824,-976,15380,1,0,0
37854,89735.00,506.91,507.54,-872,-1004,15404,1,0,0
37881,89735.00,506.91,507.53,-864,-1104,15168,1,0,0
37909,89734.00,507.00,507.53,-796,-1048,15360,1,0,0
37941,89735.00,506.91,507.52,-964,-1108,15376,1,0,0
37968,89735.00,506.91,507.52,-832,-1028,15372,1,0,0
37996,89734.00,507.00,507.51,-944,-952,15340,1,0,0
38024,89735.00,506.91,507.51,-1044,-956,15372,1,0,0
38052,89735.00,506.91,507.50,-892,-1076,15288,1,0,0
38080,89734.00,507.00,507.50,-1028,-988,15412,1,0,0
38108,89734.00,507.00,507.49,-856,-980,15328,1,0,0
38135,89734.00,507.00,507.49,-872,-1092,15356,1,0,0
38163,89734.00,507.00,507.48,-1056,-1032,15460,1,0,0
38191,89734.00,507.00,507.48,-896,-1052,15284,1,0,0
38222,89733.00,507.09,507.48,-856,-988,15348,1,0,0
38250,89733.00,507.09,507.47,-828,-1016,15352,1,0,0
38279,89733.00,507.09,507.47,-856,-1080,15268,1,0,0
38306,89733.00,507.09,507.47,-924,-1020,15408,1,0,0
38334,89733.00,507.09,507.46,-760,-960,15344,1,0,0
38362,89733.00,507.09,507.46,-912,-1012,15452,1,0,0
38389,89732.00,507.19,507.46,-916,-932,15416,1,0,0
38417,89732.00,507.19,507.45,-868,-1048,15336,1,0,0
38446,89733.00,507.09,507.45,-816,-1036,15432,1,0,0
38473,89732.00,507.19,507.45,-948,-1092,15452,1,0,0
38505,89732.00,507.19,507.45,-920,-1028,15240,1,0,0
38541,89732.00,507.19,507.44,-948,-1032,15436,1,0,0
38569,89732.00,507.19,507.44,-968,-1020,15348,1,0,0
38597,89732.00,507.19,507.44,-876,-980,15484,1,0,0
38625,89732.00,507.19,507.44,-848,-1020,15268,1,0,0
38652,89732.00,507.19,507.44,-872,-968,15304,1,0,0
38680,89732.00,507.19,507.43,-984,-1104,15432,1,0,0
38708,89733.00,507.09,507.43,-1008,-1076,15468,1,0,0
38748,89733.00,507.09,507.43,-952,-1004,15452,1,0,0
38775,89733.00,507.09,507.42,-892,-944,15312,1,0,0
38807,89733.00,507.09,507.42,-916,-1024,15364,1,0,0
38835,89733.00,507.09,507.42,-912,-952,15308,1,0,0
38862,89733.00,507.09,507.42,-916,-1096,15492,1,0,0
38890,89733.00,507.09,507.41,-916,-1028,15448,1,0,0
38919,89732.00,507.19,507.41,-720,-932,15344,1,0,0
38946,89732.00,507.19,507.41,-856,-1000,15340,1,0,0
38974,89732.00,507.19,507.41,-964,-1076,15360,1,0,0
39002,89732.00,507.19,507.41,-1028,-988,15424,1,0,0
39029,89732.00,507.19,507.40,-1008,-1020,15388,1,0,0
39061,89732.00,507.19,507.40,-840,-1052,15264,1,0,0
39089,89732.00,507.19,507.40,-856,-916,15408,1,0,0
39116,89732.00,507.19,507.40,-864,-1032,15232,1,0,0
39145,89732.00,507.19,507.40,-788,-1048,15388,1,0,0
39173,89733.00,507.09,507.39,-884,-1024,15312,1,0,0
39200,89733.00,507.09,507.39,-876,-924,15416,1,0,0
39228,89733.00,507.09,507.39,-852,-924,15376,1,0,0
39256,89733.00,507.09,507.39,-756,-1028,15332,1,0,0
39283,89733.00,507.09,507.38,-856,-1020,15080,1,0,0
39311,89734.00,507.00,507.38,-860,-1072,15328,1,0,0
39343,89734.00,507.00,507.38,-804,-1044,15328,1,0,0
39370,89734.00,507.00,507.38,-792,-1080,15420,1,0,0
39399,89734.00,507.00,507.37,-912,-1056,15388,1,0,0
39427,89734.00,507.00,507.37,-948,-1008,15336,1,0,0
39454,89733.00,507.09,507.37,-920,-1124,15428,1,0,0
39482,89733.00,507.09,507.36,-872,-1048,15252,1,0,0
39510,89733.00,507.09,507.36,-752,-1084,15408,1,0,0
39537,89733.00,507.09,507.36,-936,-1000,15424,1,0,0
39565,89734.00,507.00,507.36,-832,-1060,15268,1,0,0
39593,89734.00,507.00,507.35,-796,-984,15304,1,0,0
39624,89734.00,507.00,507.35,-1060,-1056,15420,1,0,0
39653,89734.00,507.00,507.35,-812,-988,15236,1,0,0
39681,89734.00,507.00,507.35,-864,-1016,15452,1,0,0
39708,89733.00,507.09,507.34,-864,-976,15484,1,0,0
39736,89734.00,507.00,507.34,-932,-1052,15368,1,0,0
39763,89734.00,507.00,507.34,-944,-1004,15392,1,0,0
39791,89734.00,507.00,507.34,-1052,-1064,15436,1,0,0
39819,89734.00,507.00,507.33,-848,-1060,15356,1,0,0
39846,89734.00,507.00,507.33,-916,-940,15400,1,0,0
39878,89734.00,507.00,507.33,-820,-976,15216,1,0,0
39906,89734.00,507.00,507.33,-964,-992,15440,1,0,0
39933,89734.00,507.00,507.32,-940,-1132,15380,1,0,0
39961,89734.00,507.00,507.32,-752,-1056,15424,1,0,0
39990,89735.00,506.91,507.32,-928,-948,15324,1,0,0
40017,89735.00,506.91,507.31,-908,-972,15404,1,0,0
40045,89735.00,506.91,507.31,-864,-988,15172,1,0,0
40073,89735.00,506.91,507.31,-728,-1016,15348,1,0,0
40100,89735.00,506.91,507.30,-876,-976,15168,1,0,0
40128,89735.00,506.91,507.30,-864,-1044,15268,1,0,0
40169,89734.00,507.00,507.30,-952,-1096,15336,1,0,0
40197,89734.00,507.00,507.30,-940,-964,15372,1,0,0
40224,89734.00,507.00,507.29,-996,-972,15408,1,0,0
40252,89735.00,506.91,507.29,-740,-884,15284,1,0,0
40280,89734.00,507.00,507.29,-848,-912,15308,1,0,0
40307,89733.00,507.09,507.29,-1064,-1164,15476,1,0,0
40347,89733.00,507.09,507.29,-916,-988,15328,1,0,0
40375,89733.00,507.09,507.28,-852,-1092,15232,1,0,0
40402,89733.00,507.09,507.28,-896,-980,15248,1,0,0
40430,89733.00,507.09,507.28,-980,-1092,15316,1,0,0
40462,89732.00,507.19,507.28,-884,-968,15200,1,0,0
40489,89733.00,507.09,507.28,-1028,-920,15484,1,0,0
40517,89733.00,507.09,507.28,-1032,-1008,15452,1,0,0
40545,89733.00,507.09,507.28,-868,-1060,15388,1,0,0
40572,89733.00,507.09,507.28,-948,-944,15364,1,0,0
40600,89733.00,507.09,507.27,-952,-980,15520,1,0,0
40628,89732.00,507.19,507.27,-788,-1044,15416,1,0,0
40655,89732.00,507.19,507.27,-820,-976,15284,1,0,0
40684,89733.00,507.09,507.27,-912,-1000,15360,1,0,0
40712,89733.00,507.09,507.27,-1012,-1048,15268,1,0,0
40743,89733.00,507.09,507.27,-804,-924,15380,1,0,0
40771,89733.00,507.09,507.27,-892,-892,15316,1,0,0
40799,89733.00,507.09,507.27,-876,-912,15324,1,0,0
40826,89734.00,507.00,507.26,-752,-996,15432,1,0,0
40854,89734.00,507.00,507.26,-760,-928,15356,1,0,0
40882,89735.00,506.91,507.26,-948,-1020,15260,1,0,0
40909,89735.00,506.91,507.26,-872,-928,15384,1,0,0
40937,89735.00,506.91,507.26,-784,-1008,15396,1,0,0
40965,89735.00,506.91,507.25,-876,-872,15396,1,0,0
40996,89735.00,506.91,507.25,-760,-940,15292,1,0,0
41024,89735.00,506.91,507.25,-852,-940,15304,1,0,0
41052,89735.00,506.91,507.25,-840,-936,15248,1,0,0
41079,89735.00,506.91,507.24,-848,-932,15392,1,0,0
41107,89734.00,507.00,507.24,-904,-972,15336,1,0,0
41135,89734.00,507.00,507.24,-788,-1056,15328,1,0,0
41162,89734.00,507.00,507.24,-908,-920,15260,1,0,0
41190,89734.00,507.00,507.24,-824,-952,15292,1,0,0
41218,89734.00,507.00,507.23,-892,-992,15360,1,0,0
41245,89734.00,507.00,507.23,-780,-1060,15324,1,0,0
41277,89734.00,507.00,507.23,-944,-1024,15344,1,0,0
41305,89734.00,507.00,507.23,-716,-1004,15380,1,0,0
41332,89734.00,507.00,507.23,-852,-1096,15408,1,0,0
41361,89734.00,507.00,507.23,-916,-1024,15360,1,0,0
41389,89734.00,507.00,507.22,-864,-968,15376,1,0,0
41416,89734.00,507.00,507.22,-772,-940,15376,1,0,0
41444,89734.00,507.00,507.22,-932,-1012,15436,1,0,0
41472,89734.00,507.00,507.22,-900,-1016,15396,1,0,0
41499,89733.00,507.09,507.22,-900,-900,15436,1,0,0
41527,89733.00,507.09,507.22,-824,-912,15388,1,0,0
41559,89733.00,507.09,507.22,-900,-1028,15488,1,0,0
41586,89733.00,507.09,507.22,-856,-1132,15340,1,0,0
41614,89733.00,507.09,507.22,-744,-1056,15260,1,0,0
41641,89733.00,507.09,507.21,-864,-960,15356,1,0,0
41669,89733.00,507.09,507.21,-832,-952,15224,1,0,0
41697,89733.00,507.09,507.21,-824,-1028,15356,1,0,0
41724,89732.00,507.19,507.21,-796,-924,15332,1,0,0
41752,89732.00,507.19,507.21,-892,-992,15412,1,0,0
41789,89731.00,507.28,507.21,-880,-964,15332,1,0,0
41817,89731.00,507.28,507.21,-1088,-940,15500,1,0,0
41848,89731.00,507.28,507.21,-804,-1008,15284,1,0,0
41876,89731.00,507.28,507.21,-696,-904,15424,1,0,0
41916,89732.00,507.19,507.21,-784,-988,15380,1,0,0
41944,89732.00,507.19,507.21,-896,-960,15332,1,0,0
41971,89732.00,507.19,507.21,-780,-1024,15240,1,0,0
41999,89732.00,507.19,507.21,-816,-1032,15296,1,0,0
42027,89732.00,507.19,507.21,-1028,-1016,15416,1,0,0
42054,89732.00,507.19,507.21,-804,-900,15380,1,0,0
42082,89733.00,507.09,507.21,-864,-940,15288,1,0,0
42114,89733.00,507.09,507.21,-680,-980,15132,1,0,0
42141,89733.00,507.09,507.21,-492,-808,14988,1,0,0
42169,89733.00,507.09,507.21,-1252,-1152,15480,1,0,0
42196,89733.00,507.09,507.21,-1020,-1028,15592,1,0,0
42224,89733.00,507.09,507.21,-684,-816,15184,1,0,0
42252,89733.00,507.09,507.21,-760,-1004,15204,1,0,0
42279,89734.00,507.00,507.21,-796,-1032,15276,1,0,0
42307,89734.00,507.00,507.21,-788,-1008,15324,1,0,0
42335,89734.00,507.00,507.20,-952,-1032,15348,1,0,0
42362,89733.00,507.09,507.20,-956,-912,15492,1,0,0
42394,89734.00,507.00,507.20,-868,-908,15440,1,0,0
42422,89733.00,507.09,507.20,-868,-1068,15308,1,0,0
42449,89733.00,507.09,507.20,-892,-964,15400,1,0,0
42477,89734.00,507.00,507.20,-828,-936,15388,1,0,0
42505,89734.00,507.00,507.20,-784,-1056,15248,1,0,0
42532,89734.00,507.00,507.20,-844,-964,15188,1,0,0
42560,89734.00,507.00,507.20,-920,-984,15328,1,0,0
42588,89734.00,507.00,507.20,-804,-1000,15364,1,0,0
42615,89733.00,507.09,507.20,-768,-936,15328,1,0,0
42643,89733.00,507.09,507.19,-788,-1020,15372,1,0,0
42675,89733.00,507.09,507.19,-956,-1012,15448,1,0,0
42702,89733.00,507.09,507.19,-852,-1008,15356,1,0,0
42730,89734.00,507.00,507.19,-740,-884,15292,1,0,0
42758,89733.00,507.09,507.19,-824,-888,15440,1,0,0
42785,89734.00,507.00,507.19,-980,-844,15504,1,0,0
42813,89733.00,507.09,507.19,-784,-988,15304,1,0,0
42841,89733.00,507.09,507.19,-812,-960,15288,1,0,0
42868,89733.00,507.09,507.19,-872,-972,15308,1,0,0
42896,89733.00,507.09,507.19,-844,-940,15436,1,0,0
42924,89733.00,507.09,507.19,-840,-936,15448,1,0,0
42955,89733.00,507.09,507.19,-724,-920,15376,1,0,0
42983,89733.00,507.09,507.19,-812,-960,15404,1,0,0
43011,89733.00,507.09,507.19,-856,-980,15488,1,0,0
43038,89733.00,507.09,507.19,-660,-896,15324,1,0,0
43066,89733.00,507.09,507.19,-636,-836,15324,1,0,0
43094,89733.00,507.09,507.18,-840,-916,15368,1,0,0
43121,89734.00,507.00,507.18,-1056,-984,15452,1,0,0
43149,89734.00,507.00,507.18,-796,-940,15320,1,0,0
43176,89734.00,507.00,507.18,-876,-952,15340,1,0,0
43208,89734.00,507.00,507.18,-860,-1004,15448,1,0,0
43236,89734.00,507.00,507.18,-792,-944,15232,1,0,0
43264,89734.00,507.00,507.18,-888,-1060,15236,1,0,0
43291,89734.00,507.00,507.18,-900,-1036,15076,1,0,0
43319,89735.00,506.91,507.18,-856,-928,15340,1,0,0
43346,89735.00,506.91,507.17,-764,-1068,15308,1,0,0
43382,89735.00,506.91,507.17,-824,-928,15316,1,0,0
43410,89735.00,506.91,507.17,-864,-948,15352,1,0,0
43438,89736.00,506.82,507.17,-860,-944,15276,1,0,0
43465,89735.00,506.91,507.17,-776,-944,15204,1,0,0
43509,89735.00,506.91,507.17,-1044,-940,15416,1,0,0
43537,89735.00,506.91,507.17,-868,-944,15448,1,0,0
43565,89735.00,506.91,507.16,-876,-932,15428,1,0,0
43592,89735.00,506.91,507.16,-720,-928,15332,1,0,0
43620,89734.00,507.00,507.16,-884,-964,15348,1,0,0
43648,89734.00,507.00,507.16,-888,-924,15376,1,0,0
43675,89734.00,507.00,507.16,-844,-980,15460,1,0,0
43703,89734.00,507.00,507.16,-772,-996,15296,1,0,0
43730,89734.00,507.00,507.16,-852,-940,15352,1,0,0
43758,89734.00,507.00,507.16,-856,-1060,15252,1,0,0
43789,89734.00,507.00,507.16,-828,-884,15252,1,0,0
43816,89734.00,507.00,507.16,-832,-844,15220,1,0,0
43844,89734.00,507.00,507.16,-760,-1032,15208,1,0,0
43872,89734.00,507.00,507.15,-892,-1040,15296,1,0,0
43899,89735.00,506.91,507.15,-856,-1032,15380,1,0,0
43927,89735.00,506.91,507.15,-900,-824,15472,1,0,0
43955,89735.00,506.91,507.15,-740,-912,15284,1,0,0
43982,89735.00,506.91,507.15,-744,-1032,15288,1,0,0
44010,89735.00,506.91,507.15,-952,-1000,15576,1,0,0
44039,89736.00,506.82,507.15,-920,-944,15396,1,0,0
44069,89736.00,506.82,507.14,-840,-1056,15380,1,0,0
44097,89736.00,506.82,507.14,-828,-940,15280,1,0,0
44125,89736.00,506.82,507.14,-884,-1008,15208,1,0,0
44152,89736.00,506.82,507.14,-780,-964,15336,1,0,0
44180,89736.00,506.82,507.14,-876,-1012,15256,1,0,0
44208,89736.00,506.82,507.14,-792,-924,15304,1,0,0
44235,89736.00,506.82,507.13,-864,-840,15512,1,0,0
44263,89736.00,506.82,507.13,-672,-904,15260,1,0,0
44291,89736.00,506.82,507.13,-588,-940,15228,1,0,0
44318,89735.00,506.82,507.13,-776,-860,15216,1,0,0
44350,89735.00,506.91,507.13,-796,-1016,15308,1,0,0
44378,89735.00,506.91,507.13,-708,-948,15192,1,0,0
44405,89735.00,506.91,507.13,-824,-968,15436,1,0,0
44433,89735.00,506.91,507.12,-816,-924,15400,1,0,0
44461,89735.00,506.91,507.12,-844,-992,15424,1,0,0
44488,89736.00,506.82,507.12,-940,-1044,15460,1,0,0
44516,89736.00,506.82,507.12,-704,-904,15196,1,0,0
44544,89736.00,506.82,507.12,-704,-848,15132,1,0,0
44571,89736.00,506.82,507.12,-784,-1040,15348,1,0,0
44602,89736.00,506.82,507.11,-872,-880,15244,1,0,0
44630,89735.00,506.91,507.11,-876,-916,15356,1,0,0
44657,89736.00,506.82,507.11,-832,-1000,15412,1,0,0
44685,89736.00,506.82,507.11,-788,-1012,15380,1,0,0
44711,89736.00,506.82,507.11,-1008,-968,15540,1,0,0
44739,89736.00,506.82,507.11,-836,-1032,15396,1,0,0
44767,89737.00,506.72,507.11,-772,-1076,15320,1,0,0
44794,89737.00,506.72,507.10,-700,-980,15364,1,0,0
44822,89736.00,506.82,507.10,-792,-984,15496,1,0,0
44849,89736.00,506.82,507.10,-728,-1084,15308,1,0,0
44962,89737.00,506.72,507.10,-664,-996,15292,1,0,0
44992,89738.00,506.63,507.10,-968,-904,15408,1,0,0
45023,89737.00,506.72,507.09,-756,-912,15356,1,0,0
45062,89737.00,506.72,507.09,-644,-932,15064,1,0,0
45091,89737.00,506.72,507.09,-852,-900,15340,1,0,0
45121,89737.00,506.72,507.09,-744,-920,15352,1,0,0
45151,89737.00,506.72,507.09,-668,-992,15380,1,0,0
45193,89737.00,506.72,507.08,-864,-1048,15468,1,0,0
45222,89737.00,506.72,507.08,-856,-952,15316,1,0,0
45252,89737.00,506.72,507.08,-856,-1076,15292,1,0,0
45286,89737.00,506.72,507.08,-768,-1088,15352,1,0,0
45317,89737.00,506.72,507.08,-968,-1012,15596,1,0,0
45346,89738.00,506.63,507.07,-872,-900,15284,1,0,0
45377,89738.00,506.63,507.07,-916,-892,15380,1,0,0
45408,89738.00,506.63,507.07,-828,-904,15348,1,0,0
45437,89738.00,506.63,507.07,-840,-1048,15340,1,0,0
45468,89738.00,506.63,507.06,-892,-980,15284,1,0,0
45498,89737.00,506.72,507.06,-960,-980,15308,1,0,0
45529,89738.00,506.63,507.06,-768,-1024,15300,1,0,0
45558,89738.00,506.63,507.06,-800,-972,15420,1,0,0
45593,89737.00,506.72,507.05,-620,-972,15308,1,0,0
45623,89737.00,506.72,507.05,-984,-1020,15388,1,0,0
45654,89737.00,506.72,507.05,-812,-988,15472,1,0,0
45683,89737.00,506.72,507.05,-856,-1024,15476,1,0,0
45714,89737.00,506.72,507.05,-980,-872,15584,1,0,0
45744,89737.00,506.72,507.05,-1224,-1004,15464,1,0,0
45774,89737.00,506.72,507.04,-700,-944,15096,1,0,0
45804,89737.00,506.72,507.04,-672,-1048,15324,1,0,0
45835,89737.00,506.72,507.04,-856,-1048,15200,1,0,0
45869,89737.00,506.72,507.04,-768,-1000,15288,1,0,0
45899,89737.00,506.72,507.04,-856,-920,15448,1,0,0
45929,89737.00,506.72,507.03,-792,-1020,15296,1,0,0
45960,89737.00,506.72,507.03,-780,-928,15348,1,0,0
45989,89737.00,506.72,507.03,-812,-1008,15280,1,0,0
46020,89737.00,506.72,507.03,-816,-948,15368,1,0,0
46051,89737.00,506.72,507.03,-856,-960,15388,1,0,0
46081,89737.00,506.72,507.03,-716,-944,15432,1,0,0
46111,89737.00,506.72,507.02,-788,-924,15360,1,0,0
46141,89737.00,506.72,507.02,-856,-908,15444,1,0,0
46175,89737.00,506.72,507.02,-812,-900,15440,1,0,0
46205,89737.00,506.72,507.02,-792,-1048,15412,1,0,0
46235,89737.00,506.72,507.02,-868,-924,15264,1,0,0
46266,89737.00,506.72,507.02,-876,-972,15420,1,0,0
46296,89737.00,506.72,507.01,-872,-924,15364,1,0,0
46326,89737.00,506.72,507.01,-788,-924,15396,1,0,0
46356,89737.00,506.72,507.01,-784,-876,15264,1,0,0
46387,89737.00,506.72,507.01,-792,-948,15264,1,0,0
46417,89736.00,506.82,507.01,-916,-976,15420,1,0,0
46447,89736.00,506.82,507.01,-768,-956,15216,1,0,0
46481,89736.00,506.82,507.01,-844,-988,15392,1,0,0
46512,89736.00,506.82,507.00,-736,-1036,15272,1,0,0
46541,89736.00,506.82,507.00,-772,-1020,15344,1,0,0
46572,89736.00,506.82,507.00,-864,-1008,15360,1,0,0
46602,89737.00,506.72,507.00,-784,-904,15288,1,0,0
46632,89737.00,506.72,507.00,-884,-1000,15332,1,0,0
46662,89736.00,506.82,507.00,-868,-996,15328,1,0,0
46693,89737.00,506.72,507.00,-708,-864,15348,1,0,0
46723,89737.00,506.72,507.00,-868,-948,15452,1,0,0
46753,89737.00,506.72,506.99,-664,-916,15332,1,0,0
46796,89737.00,506.72,506.99,-720,-1044,15420,1,0,0
46826,89737.00,506.72,506.99,-824,-1008,15336,1,0,0
46857,89737.00,506.72,506.99,-896,-1016,15328,1,0,0
46899,89738.00,506.63,506.99,-864,-968,15372,1,0,0
46929,89738.00,506.63,506.99,-820,-988,15408,1,0,0
46959,89737.00,506.72,506.98,-812,-992,15468,1,0,0
46990,89737.00,506.72,506.98,-904,-944,15340,1,0,0
47020,89737.00,506.72,506.98,-716,-920,15308,1,0,0
47050,89737.00,506.72,506.98,-848,-940,15488,1,0,0
47080,89737.00,506.72,506.98,-732,-1016,15340,1,0,0
47115,89737.00,506.72,506.98,-888,-992,15236,1,0,0
47144,89737.00,506.72,506.97,-948,-968,15228,1,0,0
47175,89737.00,506.72,506.97,-864,-952,15384,1,0,0
47205,89737.00,506.72,506.97,-648,-920,15292,1,0,0
47236,89737.00,506.72,506.97,-820,-976,15356,1,0,0
47265,89736.00,506.82,506.97,-832,-1020,15456,1,0,0
47296,89736.00,506.82,506.97,-836,-964,15396,1,0,0
47326,89736.00,506.82,506.97,-864,-980,15324,1,0,0
47356,89736.00,506.82,506.97,-768,-940,15296,1,0,0
47390,89736.00,506.82,506.97,-700,-936,15260,1,0,0
47420,89735.00,506.91,506.97,-900,-1008,15368,1,0,0
47451,89736.00,506.82,506.97,-792,-980,15360,1,0,0
47480,89736.00,506.82,506.96,-768,-996,15380,1,0,0
47511,89736.00,506.82,506.96,-744,-924,15260,1,0,0
47541,89735.00,506.91,506.96,-696,-992,15224,1,0,0
47571,89736.00,506.82,506.96,-700,-848,15380,1,0,0
47601,89736.00,506.82,506.96,-956,-768,15564,1,0,0
47632,89736.00,506.82,506.96,-784,-920,15420,1,0,0
47662,89735.00,506.91,506.96,-784,-944,15356,1,0,0
47696,89735.00,506.91,506.96,-704,-996,15332,1,0,0
47726,89735.00,506.91,506.96,-824,-1036,15412,1,0,0
47757,89735.00,506.91,506.96,-808,-964,15324,1,0,0
47787,89735.00,506.91,506.96,-820,-1084,15316,1,0,0
47817,89735.00,506.91,506.96,-756,-932,15320,1,0,0
47847,89735.00,506.91,506.96,-844,-904,15264,1,0,0
47877,89734.00,507.00,506.96,-856,-1084,15336,1,0,0
47907,89734.00,507.00,506.96,-784,-880,15284,1,0,0
47937,89735.00,506.91,506.96,-764,-972,15204,1,0,0
47968,89736.00,506.82,506.96,-884,-924,15392,1,0,0
48002,89735.00,506.91,506.96,-820,-932,15304,1,0,0
48032,89735.00,506.91,506.96,-916,-940,15404,1,0,0
48062,89736.00,506.82,506.96,-728,-940,15364,1,0,0
48092,89736.00,506.82,506.96,-832,-1064,15328,1,0,0
48122,89736.00,506.82,506.96,-892,-900,15420,1,0,0
48152,89736.00,506.82,506.96,-836,-952,15476,1,0,0
48183,89736.00,506.82,506.95,-928,-904,15344,1,0,0
48212,89736.00,506.82,506.95,-656,-912,15276,1,0,0
48243,89736.00,506.82,506.95,-768,-904,15252,1,0,0
48273,89736.00,506.82,506.95,-776,-948,15320,1,0,0
48308,89735.00,506.91,506.95,-760,-956,15388,1,0,0
48337,89735.00,506.91,506.95,-820,-972,15484,1,0,0
48368,89735.00,506.91,506.95,-840,-912,15472,1,0,0
48398,89736.00,506.82,506.95,-692,-888,15288,1,0,0
48428,89736.00,506.82,506.95,-820,-968,15532,1,0,0
48458,89736.00,506.82,506.95,-776,-848,15312,1,0,0
48488,89736.00,506.82,506.95,-800,-888,15348,1,0,0
48519,89736.00,506.82,506.95,-720,-976,15328,1,0,0
48558,89737.00,506.72,506.95,-820,-1000,15424,1,0,0
48600,89737.00,506.72,506.95,-720,-912,15332,1,0,0
48634,89737.00,506.72,506.95,-856,-992,15372,1,0,0
48664,89737.00,506.72,506.94,-800,-912,15248,1,0,0
48694,89737.00,506.72,506.94,-876,-940,15552,1,0,0
48724,89737.00,506.72,506.94,-736,-940,15372,1,0,0
48754,89737.00,506.72,506.94,-648,-908,15256,1,0,0
48785,89737.00,506.72,506.94,-880,-980,15496,1,0,0
48815,89736.00,506.82,506.94,-792,-988,15392,1,0,0
48845,89736.00,506.82,506.94,-816,-1032,15300,1,0,0
48875,89736.00,506.82,506.94,-812,-996,15380,1,0,0
48909,89736.00,506.82,506.94,-792,-980,15304,1,0,0
48940,89737.00,506.72,506.94,-772,-960,15400,1,0,0
48969,89737.00,506.72,506.94,-920,-960,15316,1,0,0
49000,89737.00,506.72,506.93,-800,-948,15376,1,0,0
49030,89736.00,506.82,506.93,-748,-992,15396,1,0,0
49060,89736.00,506.82,506.93,-832,-912,15428,1,0,0
49090,89736.00,506.82,506.93,-836,-944,15256,1,0,0
49120,89735.00,506.91,506.93,-944,-940,15280,1,0,0
49150,89735.00,506.91,506.93,-812,-1060,15464,1,0,0
49180,89735.00,506.91,506.93,-848,-884,15340,1,0,0
49215,89735.00,506.91,506.93,-728,-1020,15328,1,0,0
49245,89734.00,507.00,506.93,-900,-976,15356,1,0,0
49274,89733.00,507.09,506.93,-816,-988,15444,1,0,0
49305,89733.00,507.09,506.93,-808,-920,15352,1,0,0
49335,89732.00,507.19,506.94,-876,-968,15404,1,0,0
49366,89732.00,507.19,506.94,-744,-1064,15328,1,0,0
49395,89733.00,507.09,506.94,-840,-956,15284,1,0,0
49426,89732.00,507.19,506.94,-800,-952,15292,1,0,0
49456,89732.00,507.19,506.94,-692,-944,15384,1,0,0
49485,89732.00,507.19,506.94,-884,-1044,15424,1,0,0
49520,89732.00,507.19,506.94,-824,-920,15500,1,0,0
49550,89732.00,507.19,506.94,-700,-1024,15352,1,0,0
49581,89733.00,507.09,506.94,-876,-904,15456,1,0,0
49610,89733.00,507.09,506.94,-800,-984,15348,1,0,0
49640,89732.00,507.19,506.95,-748,-956,15224,1,0,0
49671,89733.00,507.09,506.95,-908,-984,15376,1,0,0
49700,89733.00,507.09,506.95,-820,-864,15476,1,0,0
49731,89733.00,507.09,506.95,-980,-892,15376,1,0,0
49761,89733.00,507.09,506.95,-728,-1040,15248,1,0,0
49792,89733.00,507.09,506.95,-800,-896,15368,1,0,0
49825,89733.00,507.09,506.95,-704,-940,15344,1,0,0
49855,89733.00,507.09,506.95,-712,-916,15392,1,0,0
49886,89733.00,507.09,506.95,-792,-1040,15376,1,0,0
49915,89733.00,507.09,506.95,-776,-968,15460,1,0,0
49945,89734.00,507.00,506.95,-764,-952,15244,1,0,0
49976,89734.00,507.00,506.95,-840,-952,15428,1,0,0
50006,89733.00,507.09,506.95,-768,-1052,15276,1,0,0
50036,89733.00,507.09,506.95,-916,-932,15468,1,0,0
50066,89733.00,507.09,506.95,-756,-1048,15324,1,0,0
50097,89733.00,507.09,506.95,-704,-1032,15276,1,0,0
50130,89733.00,507.09,506.96,-836,-1000,15420,1,0,0
50160,89733.00,507.09,506.96,-860,-972,15484,1,0,0
50191,89732.00,507.19,506.96,-784,-964,15372,1,0,0
50221,89732.00,507.19,506.96,-936,-1008,15460,1,0,0
50250,89732.00,507.19,506.96,-808,-956,15268,1,0,0
50301,89731.00,507.28,506.96,-856,-964,15380,1,0,0
50332,89732.00,507.19,506.96,-876,-1024,15468,1,0,0
50362,89731.00,507.28,506.96,-860,-968,15340,1,0,0
50393,89731.00,507.28,506.96,-948,-928,15432,1,0,0
50426,89731.00,507.28,506.97,-792,-976,15336,1,0,0
50456,89731.00,507.28,506.97,-884,-912,15368,1,0,0
50487,89731.00,507.28,506.97,-872,-952,15356,1,0,0
50516,89732.00,507.19,506.97,-808,-1008,15300,1,0,0
50547,89732.00,507.19,506.97,-824,-960,15256,1,0,0
50577,89731.00,507.28,506.97,-848,-968,15284,1,0,0
50607,89731.00,507.28,506.97,-772,-936,15292,1,0,0
50637,89730.00,507.37,506.98,-804,-976,15356,1,0,0
50667,89730.00,507.37,506.98,-760,-936,15324,1,0,0
50698,89730.00,507.37,506.98,-780,-1072,15128,1,0,0
50732,89730.00,507.37,506.98,-816,-1020,15260,1,0,0
50761,89731.00,507.28,506.98,-780,-940,15316,1,0,0
50792,89731.00,507.28,506.98,-752,-1024,15332,1,0,0
50822,89731.00,507.28,506.99,-860,-872,15300,1,0,0
50851,89731.00,507.28,506.99,-744,-948,15384,1,0,0
50882,89731.00,507.28,506.99,-756,-984,15356,1,0,0
50912,89731.00,507.28,506.99,-720,-924,15472,1,0,0
50942,89731.00,507.28,506.99,-768,-992,15284,1,0,0
50972,89730.00,507.37,506.99,-792,-1080,15384,1,0,0
51002,89731.00,507.28,506.99,-876,-980,15388,1,0,0
51037,89730.00,507.37,507.00,-764,-988,15532,1,0,0
51066,89729.00,507.47,507.00,-948,-992,15404,1,0,0
51096,89729.00,507.47,507.00,-968,-988,15364,1,0,0
51127,89729.00,507.47,507.00,-736,-924,15356,1,0,0
51156,89729.00,507.47,507.00,-892,-1008,15280,1,0,0
51186,89729.00,507.47,507.01,-868,-976,15384,1,0,0
51217,89730.00,507.37,507.01,-892,-984,15452,1,0,0
51247,89730.00,507.37,507.01,-868,-912,15404,1,0,0
51277,89730.00,507.37,507.01,-764,-884,15268,1,0,0
51307,89729.00,507.47,507.01,-752,-920,15388,1,0,0
51341,89729.00,507.47,507.02,-780,-988,15408,1,0,0
51371,89729.00,507.47,507.02,-872,-952,15428,1,0,0
51401,89730.00,507.37,507.02,-812,-908,15372,1,0,0
51431,89730.00,507.37,507.02,-812,-1032,15340,1,0,0
51462,89729.00,507.47,507.02,-828,-960,15476,1,0,0
51491,89729.00,507.47,507.03,-776,-976,15332,1,0,0
51521,89730.00,507.37,507.03,-768,-924,15356,1,0,0
51552,89730.00,507.37,507.03,-664,-908,15316,1,0,0
51581,89730.00,507.37,507.03,-828,-940,15264,1,0,0
51612,89730.00,507.37,507.03,-896,-964,15428,1,0,0
51646,89730.00,507.37,507.04,-784,-868,15428,1,0,0
51676,89730.00,507.37,507.04,-688,-940,15352,1,0,0
51705,89730.00,507.37,507.04,-824,-1000,15372,1,0,0
51736,89730.00,507.37,507.04,-720,-960,15440,1,0,0
51766,89731.00,507.28,507.04,-780,-996,15356,1,0,0
51795,89731.00,507.28,507.04,-832,-984,15432,1,0,0
51826,89731.00,507.28,507.04,-856,-1036,15252,1,0,0
51856,89731.00,507.28,507.05,-856,-904,15244,1,0,0
51887,89731.00,507.28,507.05,-736,-912,15296,1,0,0
51916,89730.00,507.37,507.05,-916,-1020,15352,1,0,0
51944,89730.00,507.37,507.05,-704,-912,15356,1,0,0
51974,89730.00,507.37,507.05,-820,-912,15468,1,0,0
52017,89730.00,507.37,507.05,-832,-928,15404,1,0,0
52056,89729.00,507.47,507.06,-808,-1024,15324,1,0,0
52085,89730.00,507.37,507.06,-844,-1016,15428,1,0,0
52116,89730.00,507.37,507.06,-836,-992,15420,1,0,0
52146,89729.00,507.47,507.06,-904,-1044,15524,1,0,0
52175,89729.00,507.47,507.06,-728,-932,15184,1,0,0
52206,89729.00,507.47,507.06,-876,-884,15384,1,0,0
52240,89730.00,507.37,507.07,-812,-952,15356,1,0,0
52270,89729.00,507.47,507.07,-796,-932,15424,1,0,0
52300,89729.00,507.47,507.07,-768,-904,15276,1,0,0
52330,89729.00,507.47,507.07,-808,-872,15404,1,0,0
52360,89729.00,507.47,507.07,-644,-1020,15312,1,0,0
52390,89729.00,507.47,507.08,-772,-908,15328,1,0,0
52420,89729.00,507.47,507.08,-784,-940,15276,1,0,0
52450,89729.00,507.47,507.08,-832,-972,15292,1,0,0
52481,89730.00,507.37,507.08,-864,-960,15392,1,0,0
52510,89730.00,507.37,507.08,-768,-992,15336,1,0,0
52544,89730.00,507.37,507.09,-800,-952,15280,1,0,0
52575,89730.00,507.37,507.09,-748,-952,15332,1,0,0
52604,89730.00,507.37,507.09,-860,-864,15444,1,0,0
52634,89730.00,507.37,507.09,-688,-912,15340,1,0,0
52665,89730.00,507.37,507.09,-852,-920,15388,1,0,0
52695,89730.00,507.37,507.09,-784,-984,15420,1,0,0
52724,89730.00,507.37,507.09,-824,-976,15344,1,0,0
52755,89731.00,507.28,507.10,-860,-960,15380,1,0,0
52785,89731.00,507.28,507.10,-732,-920,15264,1,0,0
52814,89731.00,507.28,507.10,-764,-944,15260,1,0,0
52848,89731.00,507.28,507.10,-776,-976,15360,1,0,0
52879,89731.00,507.28,507.10,-844,-1008,15360,1,0,0
52909,89731.00,507.28,507.10,-832,-1032,15384,1,0,0
52938,89730.00,507.37,507.10,-828,-860,15416,1,0,0
52969,89730.00,507.37,507.10,-764,-872,15272,1,0,0
52999,89730.00,507.37,507.10,-764,-1012,15276,1,0,0
53028,89731.00,507.28,507.11,-792,-992,15152,1,0,0
53059,89730.00,507.37,507.11,-712,-880,15324,1,0,0
53089,89730.00,507.37,507.11,-860,-964,15512,1,0,0
53120,89731.00,507.28,507.11,-864,-976,15432,1,0,0
53153,89732.00,507.19,507.11,-856,-872,15420,1,0,0
53183,89732.00,507.19,507.11,-800,-1012,15376,1,0,0
53213,89732.00,507.19,507.11,-760,-880,15344,1,0,0
53243,89731.00,507.28,507.11,-760,-1000,15212,1,0,0
53273,89731.00,507.28,507.11,-848,-972,15436,1,0,0
53303,89731.00,507.28,507.11,-872,-988,15512,1,0,0
53334,89731.00,507.28,507.11,-788,-976,15324,1,0,0
53363,89731.00,507.28,507.11,-856,-892,15336,1,0,0
53393,89731.00,507.28,507.12,-856,-948,15404,1,0,0
53424,89731.00,507.28,507.12,-824,-936,15316,1,0,0
53457,89730.00,507.37,507.12,-756,-1024,15440,1,0,0
53487,89730.00,507.37,507.12,-916,-940,15444,1,0,0
53517,89730.00,507.37,507.12,-752,-1036,15320,1,0,0
53548,89730.00,507.37,507.12,-820,-940,15280,1,0,0
53577,89730.00,507.37,507.12,-712,-1000,15204,1,0,0
53607,89730.00,507.37,507.12,-860,-872,15256,1,0,0
53638,89730.00,507.37,507.13,-956,-940,15316,1,0,0
53667,89730.00,507.37,507.13,-828,-972,15304,1,0,0
53709,89729.00,507.47,507.13,-892,-1040,15380,1,0,0
53743,89730.00,507.37,507.13,-848,-1088,15356,1,0,0
53774,89730.00,507.37,507.13,-760,-804,15404,1,0,0
53813,89729.00,507.47,507.13,-808,-968,15208,1,0,0
53842,89729.00,507.47,507.13,-792,-1088,15376,1,0,0
53873,89728.00,507.56,507.14,-900,-976,15404,1,0,0
53903,89729.00,507.47,507.14,-812,-920,15428,1,0,0
53933,89729.00,507.47,507.14,-848,-960,15324,1,0,0
53963,89729.00,507.47,507.14,-656,-876,15164,1,0,0
53993,89729.00,507.47,507.14,-800,-756,15452,1,0,0
54023,89729.00,507.47,507.15,-928,-956,15420,1,0,0
54056,89729.00,507.47,507.15,-912,-880,15408,1,0,0
54087,89730.00,507.37,507.15,-792,-936,15332,1,0,0
54117,89730.00,507.37,507.15,-804,-912,15344,1,0,0
54147,89730.00,507.37,507.15,-784,-956,15300,1,0,0
54177,89729.00,507.47,507.15,-816,-1024,15384,1,0,0
54207,89729.00,507.47,507.15,-696,-848,15440,1,0,0
54237,89729.00,507.47,507.16,-776,-944,15236,1,0,0
54267,89729.00,507.47,507.16,-792,-1016,15240,1,0,0
54297,89729.00,507.47,507.16,-688,-956,15288,1,0,0
54327,89729.00,507.47,507.16,-824,-968,15384,1,0,0
54361,89729.00,507.47,507.16,-784,-988,15316,1,0,0
54390,89730.00,507.37,507.16,-748,-920,15308,1,0,0
54421,89730.00,507.37,507.16,-876,-976,15360,1,0,0
54451,89729.00,507.47,507.17,-892,-880,15380,1,0,0
54480,89729.00,507.47,507.17,-808,-896,15324,1,0,0
54510,89730.00,507.37,507.17,-800,-960,15412,1,0,0
54540,89730.00,507.37,507.17,-764,-932,15428,1,0,0
54569,89730.00,507.37,507.17,-788,-988,15412,1,0,0
54599,89729.00,507.47,507.17,-800,-988,15424,1,0,0
54629,89730.00,507.37,507.17,-740,-936,15444,1,0,0
54663,89731.00,507.28,507.17,-864,-904,15440,1,0,0
54692,89730.00,507.37,507.17,-852,-924,15348,1,0,0
54722,89729.00,507.37,507.18,-692,-960,15332,1,0,0
54753,89729.00,507.47,507.18,-744,-1060,15388,1,0,0
54782,89729.00,507.47,507.18,-848,-452,15420,1,0,0
54812,89729.00,507.47,507.18,-732,-872,15408,1,0,0
54842,89729.00,507.47,507.18,-760,-904,15336,1,0,0
54872,89729.00,507.47,507.18,-948,-1036,15376,1,0,0
54901,89729.00,507.47,507.18,-836,-964,15428,1,0,0
54932,89729.00,507.47,507.19,-848,-996,15528,1,0,0
54965,89728.00,507.56,507.19,-764,-972,15436,1,0,0
54995,89728.00,507.56,507.19,-784,-896,15308,1,0,0
55025,89728.00,507.56,507.19,-1044,-952,15496,1,0,0
55056,89729.00,507.47,507.19,-840,-840,15360,1,0,0
55087,89729.00,507.47,507.19,-848,-1004,15292,1,0,0
55116,89729.00,507.47,507.20,-880,-984,15196,1,0,0
55147,89730.00,507.37,507.20,-1124,-960,15592,1,0,0
55177,89731.00,507.28,507.20,-808,-972,15292,1,0,0
55207,89730.00,507.37,507.20,-784,-1068,15376,1,0,0
55241,89731.00,507.28,507.20,-836,-932,15328,1,0,0
55272,89730.00,507.37,507.20,-692,-924,15416,1,0,0
55302,89730.00,507.37,507.20,-696,-968,15340,1,0,0
55332,89731.00,507.37,507.20,-1020,-960,15240,1,0,0
55362,89731.00,507.28,507.20,-572,-960,15140,1,0,0
55405,89729.00,507.47,507.20,-708,-1092,15356,1,0,0
55436,89729.00,507.47,507.20,-824,-900,15356,1,0,0
55467,89729.00,507.47,507.21,-676,-1036,15072,1,0,0
55496,89730.00,507.37,507.21,-316,-296,15856,1,0,0
55527,89730.00,507.37,507.21,-596,-864,15696,1,0,0
55570,89729.00,507.47,507.21,-824,-1048,15396,1,0,0
55600,89730.00,507.37,507.21,-836,-864,15372,1,0,0
55630,89729.00,507.47,507.21,-912,-960,15424,1,0,0
55660,89729.00,507.47,507.21,-936,-980,15444,1,0,0
55691,89729.00,507.47,507.21,-832,-920,15368,1,0,0
55720,89730.00,507.37,507.21,-952,-968,15424,1,0,0
55751,89729.00,507.47,507.22,-872,-952,15356,1,0,0
55781,89729.00,507.47,507.22,-756,-972,15340,1,0,0
55812,89729.00,507.47,507.22,-856,-904,15436,1,0,0
55841,89729.00,507.47,507.22,-784,-1052,15260,1,0,0
55876,89729.00,507.47,507.22,-740,-1032,15464,1,0,0
55906,89729.00,507.47,507.22,-840,-944,15316,1,0,0
55937,89729.00,507.47,507.22,-800,-932,15388,1,0,0
55966,89729.00,507.47,507.22,-868,-856,15328,1,0,0
55997,89729.00,507.47,507.23,-764,-1044,15392,1,0,0
56027,89730.00,507.37,507.23,-776,-808,15276,1,0,0
56057,89730.00,507.37,507.23,-780,-1060,15220,1,0,0
56087,89730.00,507.37,507.23,-836,-1008,15380,1,0,0
56118,89730.00,507.37,507.23,-868,-892,15340,1,0,0
56148,89730.00,507.37,507.23,-656,-1032,15280,1,0,0
56182,89729.00,507.47,507.23,-748,-864,15368,1,0,0
56212,89729.00,507.47,507.23,-800,-952,15276,1,0,0
56243,89730.00,507.37,507.23,-868,-920,15428,1,0,0
56272,89730.00,507.37,507.23,-896,-960,15388,1,0,0
56303,89730.00,507.37,507.23,-860,-988,15476,1,0,0
56333,89730.00,507.37,507.23,-724,-1032,15324,1,0,0
56364,89730.00,507.37,507.24,-812,-1104,15356,1,0,0
56393,89729.00,507.47,507.24,-800,-1052,15324,1,0,0
56424,89729.00,507.47,507.24,-780,-1000,15300,1,0,0
56458,89729.00,507.47,507.24,-860,-936,15292,1,0,0
56488,89730.00,507.37,507.24,-784,-1008,15384,1,0,0
56518,89729.00,507.47,507.24,-788,-920,15276,1,0,0
56549,89729.00,507.47,507.24,-764,-1068,15236,1,0,0
56579,89730.00,507.37,507.24,-916,-1040,15384,1,0,0
56609,89730.00,507.37,507.24,-784,-900,15340,1,0,0
56639,89730.00,507.37,507.24,-776,-1004,15268,1,0,0
56670,89730.00,507.37,507.24,-832,-968,15472,1,0,0
56699,89730.00,507.37,507.24,-800,-944,15336,1,0,0
56730,89730.00,507.37,507.25,-660,-936,14976,1,0,0
56764,89729.00,507.47,507.25,-688,-928,15136,1,0,0
56794,89729.00,507.47,507.25,-768,-960,15344,1,0,0
56824,89729.00,507.47,507.25,-760,-840,15192,1,0,0
56854,89729.00,507.47,507.25,-1156,-888,15948,1,0,0
56885,89729.00,507.47,507.25,-1200,-776,16088,1,0,0
56914,89729.00,507.47,507.25,20,-780,15284,1,0,0
56945,89729.00,507.47,507.25,-916,-1012,15568,1,0,0
56975,89729.00,507.47,507.25,-940,-764,15420,1,0,0
57006,89728.00,507.56,507.26,-792,-992,15256,1,0,0
57035,89728.00,507.56,507.26,-716,-1028,15480,1,0,0
57070,89728.00,507.56,507.26,-924,-940,15388,1,0,0
57113,89728.00,507.56,507.26,-820,-920,15368,1,0,0
57143,89728.00,507.56,507.26,-808,-864,15408,1,0,0
57174,89728.00,507.56,507.26,-880,-1024,15264,1,0,0
57203,89728.00,507.56,507.26,-916,-844,15392,1,0,0
57234,89728.00,507.56,507.27,-764,-844,15364,1,0,0
57264,89728.00,507.56,507.27,-880,-968,15264,1,0,0
57303,89728.00,507.56,507.27,-764,-920,15380,1,0,0
57333,89729.00,507.47,507.27,-840,-1068,15436,1,0,0
57363,89729.00,507.47,507.27,-808,-976,15360,1,0,0
57398,89729.00,507.47,507.27,-852,-972,15348,1,0,0
57427,89728.00,507.56,507.27,-832,-872,15388,1,0,0
57458,89728.00,507.56,507.27,-812,-916,15316,1,0,0
57488,89728.00,507.56,507.28,-792,-964,15280,1,0,0
57519,89728.00,507.56,507.28,-736,-904,15328,1,0,0
57548,89728.00,507.56,507.28,-732,-948,15292,1,0,0
57578,89729.00,507.47,507.28,-816,-956,15420,1,0,0
57609,89728.00,507.56,507.28,-768,-964,15372,1,0,0
57638,89728.00,507.56,507.28,-604,-904,15256,1,0,0
57669,89728.00,507.56,507.28,-736,-1036,15312,1,0,0
57703,89728.00,507.56,507.28,-860,-940,15240,1,0,0
57734,89728.00,507.56,507.29,-680,-816,15276,1,0,0
57763,89728.00,507.56,507.29,-856,-932,15360,1,0,0
57794,89728.00,507.56,507.29,-688,-868,15256,1,0,0
57824,89728.00,507.56,507.29,-816,-1048,15232,1,0,0
57853,89728.00,507.56,507.29,-772,-928,15300,1,0,0
57884,89729.00,507.47,507.29,-744,-860,15272,1,0,0
57914,89729.00,507.47,507.29,-904,-980,15404,1,0,0
57945,89728.00,507.56,507.29,-944,-964,15368,1,0,0
57974,89728.00,507.56,507.30,-832,-1000,15428,1,0,0
58002,89727.00,507.65,507.30,-832,-996,15456,1,0,0
58033,89727.00,507.65,507.30,-824,-968,15312,1,0,0
58062,89728.00,507.56,507.30,-808,-956,15408,1,0,0
58093,89728.00,507.56,507.30,-840,-972,15372,1,0,0
58123,89727.00,507.65,507.30,-776,-964,15284,1,0,0
58153,89727.00,507.65,507.30,-948,-952,15428,1,0,0
58183,89727.00,507.65,507.31,-844,-844,15260,1,0,0
58214,89727.00,507.65,507.31,-784,-928,15316,1,0,0
58244,89727.00,507.65,507.31,-780,-940,15344,1,0,0
58277,89728.00,507.56,507.31,-772,-976,15272,1,0,0
58308,89728.00,507.56,507.31,-812,-1004,15352,1,0,0
58338,89728.00,507.56,507.31,-872,-920,15460,1,0,0
58369,89729.00,507.47,507.31,-888,-980,15516,1,0,0
58398,89728.00,507.56,507.32,-884,-1008,15544,1,0,0
58429,89728.00,507.56,507.32,-824,-900,15552,1,0,0
58459,89728.00,507.56,507.32,-908,-892,15312,1,0,0
58488,89728.00,507.56,507.32,-804,-880,15432,1,0,0
58519,89728.00,507.56,507.32,-872,-1044,15300,1,0,0
58549,89727.00,507.65,507.32,-908,-952,15332,1,0,0
58584,89727.00,507.65,507.32,-840,-1048,15400,1,0,0
58613,89727.00,507.65,507.33,-920,-976,15440,1,0,0
58643,89727.00,507.65,507.33,-932,-760,15268,1,0,0
58674,89727.00,507.65,507.33,-1100,-620,15252,1,0,0
58703,89727.00,507.65,507.33,-2596,-1304,16176,1,0,0
58734,89727.00,507.65,507.33,-1732,-960,16264,1,0,0
58764,89727.00,507.65,507.33,-360,-704,15264,1,0,0
58807,89727.00,507.65,507.34,-1028,-876,15584,1,0,0
58838,89728.00,507.56,507.34,-904,-1016,15344,1,0,0
58867,89728.00,507.56,507.34,-600,-920,15284,1,0,0
58902,89729.00,507.47,507.34,-768,-868,15204,1,0,0
58932,89729.00,507.47,507.34,-788,-1008,15372,1,0,0
58962,89729.00,507.47,507.34,-876,-988,15432,1,0,0
58992,89730.00,507.37,507.34,-728,-880,15260,1,0,0
59022,89730.00,507.37,507.34,-852,-956,15412,1,0,0
59062,89730.00,507.37,507.34,-952,-1052,15396,1,0,0
59091,89730.00,507.37,507.34,-788,-908,15452,1,0,0
59121,89730.00,507.37,507.34,-864,-976,15468,1,0,0
59152,89729.00,507.47,507.34,-828,-1000,15324,1,0,0
59182,89729.00,507.47,507.34,-824,-992,15348,1,0,0
59216,89729.00,507.47,507.34,-716,-948,15272,1,0,0
59246,89729.00,507.47,507.34,-900,-1004,15380,1,0,0
59276,89729.00,507.47,507.34,-808,-1008,15280,1,0,0
59307,89729.00,507.47,507.34,-868,-968,15404,1,0,0
59336,89729.00,507.47,507.34,-728,-812,15388,1,0,0
59367,89729.00,507.47,507.35,-644,-884,15304,1,0,0
59397,89729.00,507.47,507.35,-840,-964,15496,1,0,0
59427,89728.00,507.56,507.35,-760,-972,15252,1,0,0
59457,89728.00,507.56,507.35,-808,-1024,15444,1,0,0
59491,89728.00,507.56,507.35,-904,-952,15432,1,0,0
59522,89728.00,507.56,507.35,-860,-888,15324,1,0,0
59551,89728.00,507.56,507.35,-792,-1012,15384,1,0,0
59582,89728.00,507.56,507.35,-768,-992,15380,1,0,0
59612,89727.00,507.65,507.35,-780,-936,15384,1,0,0
59641,89727.00,507.65,507.36,-824,-1092,15332,1,0,0
59672,89727.00,507.65,507.36,-796,-872,15372,1,0,0
59702,89727.00,507.65,507.36,-816,-908,15352,1,0,0
59732,89727.00,507.65,507.36,-768,-948,15332,1,0,0
59762,89726.00,507.74,507.36,-888,-936,15340,1,0,0
59796,89726.00,507.74,507.36,-852,-952,15420,1,0,0
59827,89726.00,507.74,507.36,-708,-992,15460,1,0,0
59856,89727.00,507.65,507.37,-776,-964,15360,1,0,0
59887,89727.00,507.65,507.37,-888,-956,15380,1,0,0
59917,89728.00,507.56,507.37,-888,-872,15252,1,0,0
59947,89728.00,507.56,507.37,-888,-940,15384,1,0,0
59977,89727.00,507.65,507.37,-812,-1028,15292,1,0,0
60007,89727.00,507.65,507.37,-736,-1056,15428,1,0,0
60038,89727.00,507.65,507.37,-864,-980,15420,1,0,0
60067,89726.00,507.74,507.38,-832,-928,15344,1,0,0
60101,89726.00,507.74,507.38,-864,-972,15388,1,0,0
60132,89727.00,507.65,507.38,-940,-956,15552,1,0,0
60162,89726.00,507.74,507.38,-468,-988,15112,1,0,0
60192,89726.00,507.74,507.38,-568,-900,15276,1,0,0
60222,89727.00,507.65,507.38,-1076,-884,15568,1,0,0
60253,89726.00,507.74,507.38,-748,-952,15184,1,0,0
60282,89726.00,507.74,507.39,-788,-960,15464,1,0,0
60312,89726.00,507.74,507.39,-872,-924,15428,1,0,0
60343,89726.00,507.74,507.39,-600,-884,15048,1,0,0
60372,89726.00,507.74,507.39,-924,-960,15280,1,0,0
60406,89725.00,507.84,507.39,-916,-880,15392,1,0,0
60437,89725.00,507.84,507.40,-924,-1008,15452,1,0,0
60467,89725.00,507.84,507.40,-676,-700,15720,1,0,0
60510,89724.00,507.93,507.40,-808,-988,15188,1,0,0
60540,89725.00,507.84,507.40,-888,-1156,15276,1,0,0
60570,89725.00,507.84,507.41,-696,-896,15312,1,0,0
60600,89725.00,507.84,507.41,-640,-876,15232,1,0,0
60631,89725.00,507.84,507.41,-872,-916,15340,1,0,0
60660,89725.00,507.84,507.41,-996,-1300,15324,1,0,0
60691,89725.00,507.84,507.41,-432,-800,15628,1,0,0
60725,89726.00,507.74,507.42,-704,-1056,15056,1,0,0
60754,89725.00,507.84,507.42,-800,-992,15272,1,0,0
60785,89726.00,507.84,507.42,-840,-1088,14972,1,0,0
60824,89727.00,507.65,507.42,-660,-884,15248,1,0,0
60854,89727.00,507.65,507.42,-920,-1044,15508,1,0,0
60884,89727.00,507.65,507.42,-776,-884,15272,1,0,0
60914,89727.00,507.65,507.43,-808,-880,15328,1,0,0
60944,89727.00,507.65,507.43,-680,-1096,15168,1,0,0
60975,89726.00,507.74,507.43,-960,-896,15736,1,0,0
61008,89726.00,507.74,507.43,-768,-684,15772,1,0,0
61038,89726.00,507.74,507.43,-808,-1028,15380,1,0,0
61069,89726.00,507.74,507.43,-856,-916,15456,1,0,0
61099,89726.00,507.74,507.43,-1020,-856,15364,1,0,0
61128,89726.00,507.74,507.44,-520,-856,15228,1,0,0
61159,89726.00,507.74,507.44,-996,-1004,15440,1,0,0
61189,89726.00,507.74,507.44,-972,-1016,15480,1,0,0
61219,89727.00,507.65,507.44,-844,-1004,15448,1,0,0
61249,89727.00,507.65,507.44,-920,-772,15760,1,0,0
61279,89728.00,507.56,507.44,-756,-880,15384,1,0,0
61314,89728.00,507.56,507.44,-776,-928,15420,1,0,0
61343,89728.00,507.56,507.44,-704,-940,15392,1,0,0
61373,89728.00,507.56,507.44,-688,-772,15348,1,0,0
61404,89728.00,507.56,507.44,-760,-928,15216,1,0,0
61433,89728.00,507.56,507.45,-820,-844,15360,1,0,0
61463,89728.00,507.56,507.45,-720,-932,15396,1,0,0
61494,89728.00,507.56,507.45,-792,-1020,15364,1,0,0
61523,89728.00,507.56,507.45,-1016,-1116,15232,1,0,0
61554,89727.00,507.65,507.45,-656,-1048,15084,1,0,0
61584,89727.00,507.65,507.45,-676,-908,15212,1,0,0
61618,89727.00,507.65,507.45,-836,-916,15396,1,0,0
61647,89728.00,507.56,507.45,-748,-836,15424,1,0,0
61678,89728.00,507.56,507.45,-1472,-1096,15548,1,0,0
61708,89728.00,507.56,507.45,-556,-960,14904,1,0,0
61739,89728.00,507.56,507.45,-712,-968,15228,1,0,0
61768,89728.00,507.56,507.45,-940,-896,15356,1,0,0
61798,89728.00,507.56,507.45,-1528,-1180,15864,1,0,0
61829,89728.00,507.56,507.45,-424,-896,15408,1,0,0
61858,89728.00,507.56,507.45,-956,-920,15336,1,0,0
61889,89727.00,507.65,507.46,-1036,-1028,15180,1,0,0
61923,89727.00,507.65,507.46,-752,-784,15664,1,0,0
61953,89727.00,507.65,507.46,-832,-1020,15304,1,0,0
61982,89727.00,507.65,507.46,-824,-1112,15616,1,0,0
62013,89727.00,507.65,507.46,-636,-628,15520,1,0,0
62043,89727.00,507.65,507.46,-1048,-1012,15288,1,0,0
62073,89727.00,507.65,507.46,-816,-1012,15072,1,0,0
62103,89727.00,507.65,507.46,-688,-996,15180,1,0,0
62133,89728.00,507.56,507.46,-900,-1004,15468,1,0,0
62163,89728.00,507.56,507.46,-832,-972,15372,1,0,0
62210,89728.00,507.56,507.46,-1080,-1000,15276,1,0,0
62240,89728.00,507.56,507.46,-516,-1008,14992,1,0,0
62270,89728.00,507.56,507.46,-728,-944,15428,1,0,0
62301,89727.00,507.65,507.47,-868,-940,15468,1,0,0
62330,89728.00,507.56,507.47,-672,-896,15268,1,0,0
62360,89728.00,507.56,507.47,-924,-988,15456,1,0,0
62391,89728.00,507.56,507.47,-824,-988,15416,1,0,0
62420,89727.00,507.65,507.47,-720,-872,15372,1,0,0
62450,89727.00,507.65,507.47,-900,-972,15380,1,0,0
62481,89727.00,507.65,507.47,-708,-988,15464,1,0,0
62515,89727.00,507.65,507.47,-908,-960,15348,1,0,0
62554,89726.00,507.74,507.47,-728,-980,15436,1,0,0
62583,89726.00,507.74,507.47,-1004,-896,15360,1,0,0
62614,89726.00,507.74,507.47,-768,-860,15216,1,0,0
62644,89726.00,507.74,507.48,-748,-828,15344,1,0,0
62673,89725.00,507.84,507.48,-688,-1036,15252,1,0,0
62704,89725.00,507.84,507.48,-696,-1056,15348,1,0,0
62734,89725.00,507.84,507.48,-856,-964,15436,1,0,0
62764,89725.00,507.84,507.48,-700,-876,15324,1,0,0
62794,89726.00,507.74,507.48,-672,-980,15244,1,0,0
62828,89726.00,507.74,507.49,-628,-860,15412,1,0,0
62858,89725.00,507.84,507.49,-1068,-892,15744,1,0,0
62887,89725.00,507.84,507.49,-836,-972,15072,1,0,0
62918,89725.00,507.84,507.49,-804,-1068,15064,1,0,0
62948,89726.00,507.74,507.49,-792,-924,15236,1,0,0
62979,89726.00,507.74,507.49,-632,-1124,15028,1,0,0
63008,89726.00,507.74,507.49,-1564,-1524,14772,1,0,0
63038,89726.00,507.74,507.50,-872,-960,15096,1,0,0
63069,89726.00,507.74,507.50,-724,-1128,15268,1,0,0
63098,89726.00,507.74,507.50,-472,-760,14988,1,0,0
63132,89727.00,507.65,507.50,-736,-960,15248,1,0,0
63162,89727.00,507.65,507.50,-840,-936,15360,1,0,0
63193,89727.00,507.65,507.50,-836,-932,15436,1,0,0
63222,89727.00,507.65,507.50,-684,-1100,15240,1,0,0
63253,89728.00,507.56,507.50,-1088,-984,15672,1,0,0
63283,89728.00,507.56,507.50,-856,-948,15368,1,0,0
63312,89728.00,507.56,507.50,-708,-892,15332,1,0,0
63343,89728.00,507.56,507.50,-800,-904,15412,1,0,0
63373,89727.00,507.65,507.50,-1540,-1204,15784,1,0,0
63407,89727.00,507.65,507.50,-924,-844,15588,1,0,0
63436,89727.00,507.65,507.50,-912,-976,15400,1,0,0
63467,89728.00,507.56,507.50,-752,-1040,15384,1,0,0
63497,89727.00,507.65,507.50,-704,-884,15396,1,0,0
63526,89727.00,507.65,507.51,-1012,-864,15420,1,0,0
63557,89727.00,507.65,507.51,-348,-920,15180,1,0,0
63587,89726.00,507.74,507.51,-816,-956,15404,1,0,0
63617,89726.00,507.74,507.51,-852,-896,15484,1,0,0
63647,89727.00,507.65,507.51,-700,-956,15192,1,0,0
63677,89727.00,507.65,507.51,-848,-988,15244,1,0,0
63711,89727.00,507.65,507.51,-888,-956,15340,1,0,0
63740,89726.00,507.74,507.51,-760,-952,15308,1,0,0
63771,89726.00,507.74,507.51,-824,-988,15288,1,0,0
63801,89726.00,507.74,507.51,-808,-960,15496,1,0,0
63831,89726.00,507.74,507.51,-728,-968,15284,1,0,0
63874,89726.00,507.74,507.52,-1040,-1144,15368,1,0,0
63904,89726.00,507.74,507.52,-648,-740,15648,1,0,0
63934,89726.00,507.74,507.52,-1140,-816,15632,1,0,0
63964,89725.00,507.84,507.52,-724,-820,15408,1,0,0
63994,89725.00,507.84,507.52,-792,-1004,15268,1,0,0
64028,89725.00,507.84,507.52,-892,-972,15476,1,0,0
64058,89725.00,507.84,507.52,-704,-852,15256,1,0,0
64088,89726.00,507.74,507.52,-740,-904,15168,1,0,0
64117,89726.00,507.74,507.53,-1056,-1040,15480,1,0,0
64147,89726.00,507.74,507.53,-720,-796,15460,1,0,0
64177,89726.00,507.74,507.53,-664,-920,15328,1,0,0
64206,89726.00,507.74,507.53,-856,-980,15396,1,0,0
64237,89726.00,507.74,507.53,-764,-840,15436,1,0,0
64267,89727.00,507.65,507.53,-804,-1000,15336,1,0,0
64306,89726.00,507.74,507.53,-1052,-1208,15112,1,0,0
64492,89725.00,507.84,507.53,-788,-1028,15388,1,0,0
64523,89725.00,507.84,507.53,-712,-960,15244,1,0,0
64552,89725.00,507.84,507.54,-792,-1056,15500,1,0,0
64582,89725.00,507.84,507.54,-728,-884,15340,1,0,0
64612,89725.00,507.84,507.54,-776,-964,15444,1,0,0
64642,89725.00,507.84,507.54,-940,-1072,15368,1,0,0
64671,89725.00,507.84,507.54,-832,-1000,15324,1,0,0
64702,89725.00,507.84,507.54,-820,-864,15416,1,0,0
64732,89725.00,507.84,507.54,-828,-1068,15384,1,0,0
64761,89725.00,507.84,507.55,-808,-936,15368,1,0,0
64795,89726.00,507.74,507.55,-780,-880,15192,1,0,0
64826,89725.00,507.84,507.55,-880,-936,15260,1,0,0
64856,89725.00,507.84,507.55,-820,-988,15284,1,0,0
64886,89726.00,507.74,507.55,-988,-888,15368,1,0,0
64916,89726.00,507.74,507.55,-760,-992,15340,1,0,0
64947,89726.00,507.74,507.55,-816,-896,15372,1,0,0
64976,89726.00,507.74,507.55,-840,-1092,15476,1,0,0
65007,89726.00,507.74,507.55,-948,-1016,15404,1,0,0
65038,89725.00,507.84,507.56,-780,-896,15332,1,0,0
65072,89725.00,507.84,507.56,-936,-932,15416,1,0,0
65101,89725.00,507.84,507.56,-768,-832,15416,1,0,0
65132,89725.00,507.84,507.56,-780,-1008,15044,1,0,0
65163,89725.00,507.84,507.56,-904,-1048,15456,1,0,0
65192,89725.00,507.84,507.56,-924,-864,15504,1,0,0
65223,89725.00,507.84,507.56,-788,-1008,15244,1,0,0
65253,89726.00,507.74,507.56,-776,-952,15524,1,0,0
65284,89726.00,507.74,507.57,-608,-728,15660,1,0,0
65313,89725.00,507.84,507.57,-844,-1000,15356,1,0,0
65344,89726.00,507.74,507.57,-852,-988,15460,1,0,0
65378,89726.00,507.74,507.57,-820,-960,15460,1,0,0
65409,89726.00,507.74,507.57,-660,-972,15112,1,0,0
65438,89725.00,507.84,507.57,-956,-980,15568,1,0,0
65469,89725.00,507.84,507.57,-960,-944,15512,1,0,0
65499,89725.00,507.84,507.57,-812,-992,15476,1,0,0
65529,89725.00,507.84,507.57,-752,-988,15336,1,0,0
65559,89725.00,507.84,507.58,-944,-732,15660,1,0,0
65590,89725.00,507.84,507.58,-796,-932,15248,1,0,0
65620,89725.00,507.84,507.58,-780,-952,15256,1,0,0
65650,89726.00,507.74,507.58,-900,-1008,15248,1,0,0
65684,89725.00,507.84,507.58,-768,-952,15320,1,0,0
65728,89725.00,507.84,507.58,-632,-952,15376,1,0,0
65759,89725.00,507.84,507.58,-800,-980,15204,1,0,0
65788,89725.00,507.84,507.58,-780,-976,15308,1,0,0
65819,89724.00,507.93,507.59,-820,-960,15312,1,0,0
65849,89724.00,507.93,507.59,-736,-980,15300,1,0,0
65880,89724.00,507.93,507.59,-936,-892,15392,1,0,0
65909,89724.00,507.93,507.59,-752,-892,15376,1,0,0
65940,89725.00,507.84,507.59,-840,-1104,15340,1,0,0
65970,89725.00,507.84,507.59,-848,-1028,15444,1,0,0
66004,89725.00,507.84,507.59,-804,-984,15456,1,0,0
66034,89725.00,507.84,507.59,-772,-1072,15304,1,0,0
66065,89725.00,507.84,507.60,-800,-944,15228,1,0,0
66095,89725.00,507.84,507.60,-736,-956,15212,1,0,0
66125,89725.00,507.84,507.60,-804,-944,15272,1,0,0
66155,89726.00,507.74,507.60,-888,-892,15308,1,0,0
66195,89725.00,507.84,507.60,-780,-948,15440,1,0,0
66225,89724.00,507.93,507.60,-912,-996,15444,1,0,0
66255,89724.00,507.93,507.60,-848,-936,15488,1,0,0
66285,89724.00,507.93,507.61,-888,-956,15368,1,0,0
66319,89724.00,507.93,507.61,-788,-1004,15456,1,0,0
66350,89723.00,508.02,507.61,-732,-952,15452,1,0,0
66379,89723.00,508.02,507.61,-884,-1028,15448,1,0,0
66410,89723.00,508.02,507.61,-848,-1004,15256,1,0,0
66441,89723.00,508.02,507.61,-824,-1124,15384,1,0,0
66470,89723.00,508.02,507.62,-632,-664,15588,1,0,0
66501,89723.00,508.02,507.62,-824,-884,15312,1,0,0
66531,89723.00,508.02,507.62,-888,-1028,15408,1,0,0
66562,89723.00,508.02,507.62,-712,-988,15268,1,0,0
66595,89723.00,508.02,507.62,-804,-884,15292,1,0,0
66625,89723.00,508.02,507.63,-724,-940,15300,1,0,0
66656,89722.00,508.12,507.63,-840,-984,15460,1,0,0
66685,89723.00,508.02,507.63,-920,-972,15348,1,0,0
66716,89723.00,508.02,507.63,-856,-908,15272,1,0,0
66746,89723.00,508.02,507.64,-780,-980,15248,1,0,0
66777,89722.00,508.12,507.64,-1100,-1096,15548,1,0,0
66806,89722.00,508.12,507.64,-744,-908,15348,1,0,0
66837,89723.00,508.02,507.64,-712,-972,15300,1,0,0
66867,89723.00,508.02,507.64,-784,-912,15332,1,0,0
66902,89723.00,508.02,507.65,-852,-980,15392,1,0,0
66931,89723.00,508.02,507.65,-856,-880,15372,1,0,0
66962,89723.00,508.02,507.65,-888,-1016,15356,1,0,0
66992,89723.00,508.02,507.65,-812,-944,15252,1,0,0
67022,89723.00,508.02,507.65,-872,-920,15484,1,0,0
67052,89724.00,507.93,507.66,-640,-860,15264,1,0,0
67083,89724.00,507.93,507.66,-764,-952,15336,1,0,0
67112,89724.00,507.93,507.66,-800,-896,15480,1,0,0
67143,89724.00,507.93,507.66,-804,-800,15296,1,0,0
67173,89724.00,507.93,507.66,-872,-896,15428,1,0,0
67207,89724.00,507.93,507.66,-900,-924,15432,1,0,0
67237,89724.00,507.93,507.66,-724,-884,15292,1,0,0
67267,89723.00,508.02,507.67,-728,-1044,15324,1,0,0
67298,89724.00,507.93,507.67,-748,-884,15356,1,0,0
67328,89724.00,507.93,507.67,-828,-916,15248,1,0,0
67358,89724.00,507.93,507.67,-780,-928,15196,1,0,0
67401,89724.00,507.93,507.67,-776,-1008,15304,1,0,0
67432,89725.00,507.84,507.67,-824,-1000,15424,1,0,0
67463,89725.00,507.84,507.67,-876,-968,15468,1,0,0
67492,89725.00,507.84,507.67,-836,-1036,15380,1,0,0
67526,89725.00,507.84,507.67,-880,-984,15488,1,0,0
67557,89725.00,507.84,507.68,-768,-912,15404,1,0,0
67587,89725.00,507.84,507.68,-880,-968,15336,1,0,0
67617,89726.00,507.74,507.68,-828,-936,15360,1,0,0
67647,89726.00,507.74,507.68,-824,-1060,15388,1,0,0
67678,89726.00,507.74,507.68,-796,-984,15332,1,0,0
67707,89726.00,507.74,507.68,-848,-956,15424,1,0,0
67738,89726.00,507.74,507.68,-892,-868,15304,1,0,0
67768,89726.00,507.74,507.68,-832,-980,15252,1,0,0
67799,89726.00,507.74,507.68,-908,-928,15520,1,0,0
67832,89726.00,507.74,507.68,-848,-1000,15408,1,0,0
67862,89726.00,507.74,507.68,-872,-880,15528,1,0,0
67893,89726.00,507.74,507.68,-768,-992,15244,1,0,0
67932,89726.00,507.74,507.68,-808,-892,15292,1,0,0
67962,89727.00,507.65,507.68,-816,-912,15348,1,0,0
67992,89727.00,507.65,507.68,-800,-912,15500,1,0,0
68023,89726.00,507.74,507.68,-836,-940,15340,1,0,0
68052,89726.00,507.74,507.68,-752,-904,15300,1,0,0
68083,89725.00,507.84,507.68,-952,-972,15360,1,0,0
68117,89725.00,507.84,507.68,-800,-932,15316,1,0,0
68147,89725.00,507.84,507.68,-944,-964,15436,1,0,0
68177,89725.00,507.84,507.68,-860,-988,15376,1,0,0
68207,89725.00,507.84,507.68,-780,-992,15324,1,0,0
68238,89725.00,507.84,507.68,-800,-996,15176,1,0,0
68268,89725.00,507.84,507.69,-728,-924,15404,1,0,0
68297,89725.00,507.84,507.69,-940,-968,15380,1,0,0
68328,89725.00,507.84,507.69,-788,-808,15376,1,0,0
68358,89726.00,507.74,507.69,-824,-952,15508,1,0,0
68388,89726.00,507.74,507.69,-784,-912,15392,1,0,0
68422,89726.00,507.74,507.69,-872,-908,15348,1,0,0
68452,89727.00,507.65,507.69,-760,-956,15260,1,0,0
68483,89727.00,507.65,507.69,-688,-980,15356,1,0,0
68512,89726.00,507.74,507.69,-240,-932,15004,1,0,0
68543,89727.00,507.65,507.69,-896,-920,15556,1,0,0
68573,89727.00,507.65,507.69,-840,-920,15404,1,0,0
68603,89727.00,507.65,507.69,-712,-912,15256,1,0,0
68633,89727.00,507.65,507.69,-840,-820,15344,1,0,0
68664,89727.00,507.65,507.69,-760,-1020,15348,1,0,0
68694,89727.00,507.65,507.69,-744,-924,15428,1,0,0
68727,89727.00,507.65,507.69,-808,-1072,15204,1,0,0
68758,89727.00,507.65,507.69,-840,-904,15364,1,0,0
68788,89727.00,507.65,507.69,-828,-884,15296,1,0,0
68818,89727.00,507.65,507.69,-1036,-928,15428,1,0,0
68848,89727.00,507.65,507.69,-764,-776,15340,1,0,0
68879,89727.00,507.65,507.69,-792,-880,15416,1,0,0
68909,89727.00,507.65,507.69,-740,-988,15324,1,0,0
68939,89727.00,507.65,507.69,-820,-984,15428,1,0,0
68969,89726.00,507.74,507.69,-816,-884,15372,1,0,0
68999,89726.00,507.74,507.69,-812,-1044,15288,1,0,0
69033,89726.00,507.74,507.69,-892,-940,15420,1,0,0
69076,89726.00,507.74,507.69,-848,-968,15380,1,0,0
69107,89726.00,507.74,507.69,-908,-968,15352,1,0,0
69137,89726.00,507.74,507.69,-764,-1052,15184,1,0,0
69168,89727.00,507.65,507.69,-808,-908,15312,1,0,0
69197,89727.00,507.65,507.69,-760,-956,15364,1,0,0
69228,89727.00,507.65,507.69,-728,-948,15204,1,0,0
69258,89726.00,507.74,507.69,-864,-1000,15396,1,0,0
69288,89726.00,507.74,507.69,-796,-1056,15364,1,0,0
69318,89726.00,507.74,507.69,-712,-916,15260,1,0,0
69352,89726.00,507.74,507.69,-916,-1120,15356,1,0,0
69383,89725.00,507.84,507.69,-804,-1092,15328,1,0,0
69412,89725.00,507.84,507.69,-680,-956,15176,1,0,0
69443,89725.00,507.84,507.69,-732,-980,15396,1,0,0
69473,89725.00,507.84,507.69,-696,-892,15272,1,0,0
69504,89725.00,507.84,507.69,-760,-972,15304,1,0,0
69533,89725.00,507.84,507.69,-852,-1004,15388,1,0,0
69563,89725.00,507.84,507.69,-880,-980,15344,1,0,0
69594,89725.00,507.84,507.69,-1024,-984,15516,1,0,0
69627,89726.00,507.74,507.69,-932,-1016,15420,1,0,0
69658,89726.00,507.74,507.69,-760,-792,15360,1,0,0
69697,89726.00,507.74,507.69,-848,-1044,15264,1,0,0
69727,89726.00,507.74,507.69,-736,-996,15336,1,0,0
69757,89726.00,507.74,507.69,-904,-920,15476,1,0,0
69787,89726.00,507.74,507.69,-608,-932,15200,1,0,0
69818,89726.00,507.74,507.69,-840,-972,15468,1,0,0
69848,89726.00,507.74,507.69,-824,-880,15292,1,0,0
69878,89727.00,507.65,507.69,-812,-912,15256,1,0,0
69908,89726.00,507.74,507.69,-908,-924,15392,1,0,0
69942,89726.00,507.74,507.69,-864,-936,15456,1,0,0
69972,89726.00,507.74,507.69,-912,-956,15356,1,0,0
70002,89726.00,507.74,507.69,-868,-1008,15380,1,0,0
70033,89726.00,507.74,507.69,-808,-1008,15332,1,0,0
70063,89726.00,507.74,507.70,-612,-796,15272,1,0,0
70092,89726.00,507.74,507.70,-764,-996,15312,1,0,0
70123,89727.00,507.65,507.70,-784,-964,15328,1,0,0
70153,89727.00,507.65,507.69,-812,-956,15496,1,0,0
70183,89727.00,507.65,507.69,-760,-1008,15248,1,0,0
70213,89727.00,507.65,507.69,-748,-1092,15276,1,0,0
70247,89727.00,507.65,507.69,-832,-996,15300,1,0,0
70278,89727.00,507.65,507.69,-720,-1016,15268,1,0,0
70307,89727.00,507.65,507.69,-916,-960,15504,1,0,0
70338,89727.00,507.65,507.69,-852,-1012,15340,1,0,0
70368,89727.00,507.65,507.69,-756,-1000,15336,1,0,0
70398,89727.00,507.65,507.69,-936,-1036,15332,1,0,0
70428,89727.00,507.65,507.69,-900,-988,15236,1,0,0
70459,89727.00,507.65,507.69,-884,-916,15356,1,0,0
70489,89727.00,507.65,507.69,-876,-980,15352,1,0,0
70518,89726.00,507.74,507.69,-784,-1064,15348,1,0,0
70553,89726.00,507.74,507.69,-724,-952,15272,1,0,0
70583,89727.00,507.65,507.69,-868,-892,15336,1,0,0
70612,89726.00,507.74,507.69,-880,-1008,15292,1,0,0
70643,89726.00,507.74,507.69,-824,-1020,15476,1,0,0
70673,89727.00,507.65,507.69,-752,-1012,15388,1,0,0
70704,89727.00,507.65,507.69,-688,-896,15316,1,0,0
70733,89727.00,507.65,507.69,-776,-900,15340,1,0,0
70777,89727.00,507.65,507.69,-940,-876,15628,1,0,0
70807,89727.00,507.65,507.69,-652,-1024,15180,1,0,0
70838,89728.00,507.56,507.69,-736,-944,15372,1,0,0
70865,89729.00,507.47,507.69,-752,-848,15332,1,0,0
70895,89729.00,507.47,507.69,-804,-912,15324,1,0,0
70926,89728.00,507.56,507.69,-832,-940,15400,1,0,0
70956,89729.00,507.47,507.69,-856,-948,15392,1,0,0
70985,89729.00,507.47,507.69,-840,-956,15404,1,0,0
71016,89729.00,507.47,507.69,-696,-816,15232,1,0,0
71046,89729.00,507.47,507.69,-816,-1012,15508,1,0,0
71076,89729.00,507.47,507.69,-760,-920,15516,1,0,0
71106,89729.00,507.47,507.68,-696,-980,15168,1,0,0
71140,89730.00,507.37,507.68,-908,-936,15408,1,0,0
71171,89729.00,507.47,507.68,-780,-924,15200,1,0,0
71200,89729.00,507.47,507.68,-808,-944,15552,1,0,0
71230,89729.00,507.47,507.68,-700,-940,15536,1,0,0
71261,89729.00,507.47,507.68,-948,-920,15508,1,0,0
71290,89729.00,507.47,507.68,-784,-952,15444,1,0,0
71321,89729.00,507.47,507.68,-764,-916,15424,1,0,0
71351,89729.00,507.47,507.68,-772,-980,15352,1,0,0
71380,89729.00,507.47,507.68,-780,-940,15336,1,0,0
71411,89728.00,507.56,507.68,-916,-1040,15464,1,0,0
71453,89728.00,507.56,507.68,-840,-872,15280,1,0,0
71484,89728.00,507.56,507.68,-788,-892,15296,1,0,0
71514,89728.00,507.56,507.68,-740,-936,15280,1,0,0
71543,89728.00,507.56,507.68,-832,-952,15476,1,0,0
71574,89728.00,507.56,507.67,-736,-936,15332,1,0,0
71604,89729.00,507.47,507.67,-744,-1004,15340,1,0,0
71634,89728.00,507.56,507.67,-836,-1004,15524,1,0,0
71664,89728.00,507.56,507.67,-792,-1020,15396,1,0,0
71694,89728.00,507.56,507.67,-844,-912,15440,1,0,0
71725,89728.00,507.56,507.67,-712,-968,15420,1,0,0
71758,89728.00,507.56,507.67,-820,-1020,15384,1,0,0
71788,89728.00,507.56,507.67,-812,-1028,15228,1,0,0
71819,89728.00,507.56,507.67,-648,-912,15296,1,0,0
71848,89727.00,507.65,507.67,-700,-972,15212,1,0,0
71878,89727.00,507.65,507.67,-856,-1040,15556,1,0,0
71909,89727.00,507.65,507.67,-832,-972,15388,1,0,0
71939,89727.00,507.65,507.67,-784,-932,15268,1,0,0
71969,89727.00,507.65,507.67,-828,-1040,15348,1,0,0
71999,89727.00,507.65,507.67,-724,-1020,15208,1,0,0
72029,89726.00,507.74,507.67,-752,-1060,15300,1,0,0
72064,89726.00,507.74,507.67,-688,-964,15348,1,0,0
72093,89727.00,507.65,507.67,-796,-948,15348,1,0,0
72123,89727.00,507.65,507.67,-856,-984,15252,1,0,0
72154,89727.00,507.65,507.67,-892,-848,15264,1,0,0
72183,89727.00,507.65,507.67,-888,-900,15400,1,0,0
72213,89727.00,507.65,507.67,-812,-1020,15312,1,0,0
72244,89726.00,507.74,507.67,-880,-996,15388,1,0,0
72273,89727.00,507.65,507.67,-748,-1068,15492,1,0,0
72304,89728.00,507.56,507.67,-856,-1012,15564,1,0,0
72338,89728.00,507.56,507.67,-884,-1000,15504,1,0,0
72368,89728.00,507.56,507.67,-856,-1072,15312,1,0,0
72398,89727.00,507.65,507.67,-832,-920,15512,1,0,0
72441,89726.00,507.74,507.67,-728,-960,15316,1,0,0
72472,89726.00,507.74,507.67,-836,-1024,15488,1,0,0
72502,89726.00,507.74,507.67,-876,-1052,15488,1,0,0
72532,89726.00,507.74,507.67,-808,-1028,15412,1,0,0
72562,89726.00,507.74,507.67,-756,-928,15416,1,0,0
72592,89726.00,507.74,507.67,-784,-984,15304,1,0,0
72623,89726.00,507.74,507.67,-892,-868,15396,1,0,0
72656,89726.00,507.74,507.67,-656,-1092,15284,1,0,0
72686,89726.00,507.74,507.67,-752,-876,15412,1,0,0
72717,89726.00,507.74,507.67,-840,-952,15396,1,0,0
72747,89726.00,507.74,507.67,-708,-912,15336,1,0,0
72776,89726.00,507.74,507.67,-944,-924,15412,1,0,0
72807,89727.00,507.65,507.67,-768,-1028,15280,1,0,0
72837,89727.00,507.65,507.67,-780,-1024,15180,1,0,0
72866,89727.00,507.65,507.67,-800,-876,15404,1,0,0
72897,89727.00,507.65,507.67,-892,-940,15616,1,0,0
72927,89728.00,507.56,507.67,-732,-856,15460,1,0,0
72961,89728.00,507.56,507.67,-796,-876,15476,1,0,0
72991,89727.00,507.65,507.67,-744,-912,15492,1,0,0
73021,89727.00,507.65,507.67,-856,-960,15432,1,0,0
73051,89726.00,507.65,507.67,-752,-876,15312,1,0,0
73081,89726.00,507.74,507.67,-756,-984,15276,1,0,0
73111,89725.00,507.84,507.67,-832,-984,15424,1,0,0
73141,89725.00,507.84,507.67,-788,-892,15404,1,0,0
73171,89725.00,507.84,507.67,-812,-932,15332,1,0,0
73210,89726.00,507.74,507.67,-840,-924,15432,1,0,0
73240,89726.00,507.74,507.67,-896,-948,15420,1,0,0
73274,89727.00,507.65,507.67,-928,-932,15448,1,0,0
73305,89726.00,507.74,507.67,-884,-1024,15324,1,0,0
73334,89726.00,507.74,507.67,-924,-952,15444,1,0,0
73364,89726.00,507.74,507.67,-812,-976,15448,1,0,0
73395,89725.00,507.84,507.67,-860,-820,15320,1,0,0
73424,89726.00,507.74,507.68,-796,-912,15492,1,0,0
73454,89726.00,507.74,507.68,-656,-1020,15356,1,0,0
73485,89726.00,507.74,507.68,-768,-928,15520,1,0,0
73515,89726.00,507.74,507.68,-892,-960,15412,1,0,0
73544,89726.00,507.74,507.68,-816,-940,15312,1,0,0
73579,89727.00,507.65,507.68,-784,-912,15380,1,0,0
73609,89727.00,507.65,507.68,-824,-992,15420,1,0,0
73638,89727.00,507.65,507.68,-768,-960,15428,1,0,0
73669,89727.00,507.65,507.68,-724,-968,15384,1,0,0
73699,89727.00,507.65,507.68,-744,-932,15284,1,0,0
73729,89727.00,507.65,507.68,-796,-928,15348,1,0,0
73759,89726.00,507.74,507.68,-912,-908,15360,1,0,0
73789,89727.00,507.65,507.68,-708,-1028,15348,1,0,0
73819,89726.00,507.74,507.68,-912,-928,15444,1,0,0
73852,89727.00,507.65,507.68,-732,-1052,15388,1,0,0
73882,89727.00,507.65,507.68,-792,-852,15472,1,0,0
73913,89727.00,507.65,507.68,-812,-980,15276,1,0,0
73943,89727.00,507.65,507.68,-716,-956,15420,1,0,0
73972,89727.00,507.65,507.68,-880,-888,15296,1,0,0
74002,89727.00,507.65,507.68,-772,-928,15248,1,0,0
74032,89728.00,507.56,507.68,-996,-944,15392,1,0,0
74061,89727.00,507.65,507.68,-828,-1000,15480,1,0,0
74091,89726.00,507.74,507.68,-716,-1020,15288,1,0,0
74135,89726.00,507.74,507.68,-696,-948,15372,1,0,0
74169,89727.00,507.65,507.68,-824,-960,15308,1,0,0
74199,89728.00,507.65,507.68,-644,-960,15288,1,0,0
74228,89728.00,507.56,507.68,-856,-956,15340,1,0,0
74258,89728.00,507.56,507.67,-844,-976,15336,1,0,0
74288,89730.00,507.37,507.67,-864,-980,15376,1,0,0
74317,89730.00,507.37,507.67,-908,-940,15388,1,0,0
74347,89730.00,507.37,507.67,-892,-1008,15412,1,0,0
74378,89730.00,507.37,507.67,-720,-1004,15332,1,0,0
74407,89730.00,507.37,507.67,-876,-1004,15292,1,0,0
74437,89730.00,507.37,507.67,-752,-960,15468,1,0,0
74471,89730.00,507.37,507.67,-824,-996,15324,1,0,0
74501,89729.00,507.47,507.67,-772,-864,15272,1,0,0
74531,89729.00,507.47,507.67,-832,-928,15516,1,0,0
74562,89729.00,507.47,507.67,-828,-976,15348,1,0,0
74592,89729.00,507.47,507.67,-920,-1016,15272,1,0,0
74622,89729.00,507.47,507.67,-792,-920,15304,1,0,0
74652,89728.00,507.56,507.67,-872,-900,15564,1,0,0
74683,89727.00,507.65,507.67,-816,-824,15444,1,0,0
74713,89727.00,507.65,507.67,-804,-1000,15432,1,0,0
74743,89728.00,507.56,507.66,-792,-848,15288,1,0,0
74777,89728.00,507.56,507.66,-900,-932,15368,1,0,0
74808,89728.00,507.56,507.66,-724,-900,15224,1,0,0
74838,89728.00,507.56,507.66,-864,-908,15512,1,0,0
74868,89729.00,507.47,507.66,-800,-876,15432,1,0,0
74898,89729.00,507.47,507.66,-760,-904,15472,1,0,0
74938,89728.00,507.56,507.66,-832,-912,15520,1,0,0
74968,89728.00,507.56,507.66,-844,-1004,15292,1,0,0
74998,89728.00,507.56,507.66,-800,-988,15360,1,0,0
75029,89728.00,507.56,507.66,-876,-900,15264,1,0,0
75059,89728.00,507.56,507.66,-768,-1044,15324,1,0,0
75092,89728.00,507.56,507.66,-792,-1064,15204,1,0,0
75123,89727.00,507.65,507.66,-948,-1020,15464,1,0,0
75154,89727.00,507.65,507.66,-828,-968,15332,1,0,0
75184,89726.00,507.74,507.66,-828,-960,15332,1,0,0
75214,89727.00,507.65,507.66,-912,-948,15472,1,0,0
75244,89727.00,507.65,507.66,-696,-980,15300,1,0,0
75275,89727.00,507.65,507.66,-848,-984,15388,1,0,0
75304,89727.00,507.65,507.66,-788,-920,15480,1,0,0
75335,89727.00,507.65,507.66,-720,-888,15440,1,0,0
75369,89727.00,507.65,507.66,-864,-952,15424,1,0,0
75399,89726.00,507.74,507.66,-808,-912,15436,1,0,0
75429,89726.00,507.74,507.66,-856,-960,15296,1,0,0
75459,89726.00,507.74,507.66,-676,-952,15396,1,0,0
75490,89727.00,507.65,507.66,-844,-888,15368,1,0,0
75521,89727.00,507.65,507.66,-776,-908,15428,1,0,0
75550,89728.00,507.56,507.66,-696,-968,15172,1,0,0
75581,89728.00,507.56,507.66,-908,-976,15372,1,0,0
75611,89729.00,507.47,507.66,-576,-832,15388,1,0,0
75641,89729.00,507.47,507.66,-880,-856,15308,1,0,0
75675,89728.00,507.56,507.66,-920,-1048,15460,1,0,0
75706,89729.00,507.47,507.66,-720,-956,15368,1,0,0
75736,89729.00,507.47,507.66,-812,-1052,15256,1,0,0
75766,89729.00,507.47,507.66,-824,-900,15472,1,0,0
75810,89728.00,507.56,507.66,-828,-944,15384,1,0,0
75841,89728.00,507.56,507.66,-776,-940,15276,1,0,0
75871,89728.00,507.56,507.66,-760,-968,15348,1,0,0
75901,89727.00,507.65,507.66,-756,-940,15276,1,0,0
75931,89727.00,507.65,507.66,-796,-968,15316,1,0,0
75962,89727.00,507.65,507.66,-864,-912,15284,1,0,0
75996,89727.00,507.65,507.66,-856,-900,15372,1,0,0
76025,89727.00,507.65,507.66,-792,-888,15296,1,0,0
76056,89727.00,507.65,507.66,-988,-972,15444,1,0,0
76086,89727.00,507.65,507.66,-876,-940,15336,1,0,0
76116,89727.00,507.65,507.66,-900,-960,15364,1,0,0
76146,89727.00,507.65,507.66,-876,-916,15376,1,0,0
76177,89727.00,507.65,507.66,-832,-932,15132,1,0,0
76207,89727.00,507.65,507.66,-924,-1072,15404,1,0,0
76237,89727.00,507.65,507.66,-868,-956,15424,1,0,0
76267,89727.00,507.65,507.66,-828,-920,15352,1,0,0
76302,89727.00,507.65,507.66,-780,-940,15408,1,0,0
76332,89727.00,507.65,507.66,-852,-940,15524,1,0,0
76362,89727.00,507.65,507.66,-848,-932,15300,1,0,0
76392,89727.00,507.65,507.66,-792,-980,15468,1,0,0
76423,89728.00,507.56,507.66,-892,-844,15324,1,0,0
76452,89728.00,507.56,507.66,-756,-900,15340,1,0,0
76483,89728.00,507.56,507.66,-768,-980,15420,1,0,0
76513,89728.00,507.56,507.66,-796,-984,15388,1,0,0
76544,89728.00,507.56,507.66,-600,-944,15376,1,0,0
76573,89728.00,507.56,507.66,-712,-976,15392,1,0,0
76608,89728.00,507.56,507.66,-776,-968,15360,1,0,0
76638,89728.00,507.56,507.66,-828,-956,15536,1,0,0
76668,89728.00,507.56,507.66,-832,-960,15484,1,0,0
76707,89728.00,507.56,507.65,-848,-1000,15468,1,0,0
76737,89728.00,507.56,507.65,-936,-884,15496,1,0,0
76768,89727.00,507.65,507.65,-864,-912,15356,1,0,0
76797,89728.00,507.56,507.65,-788,-944,15388,1,0,0
76828,89727.00,507.65,507.65,-676,-928,15288,1,0,0
76858,89728.00,507.56,507.65,-892,-980,15396,1,0,0
76889,89728.00,507.56,507.65,-908,-924,15384,1,0,0
76922,89728.00,507.56,507.65,-828,-1020,15408,1,0,0
76953,89728.00,507.56,507.65,-736,-940,15444,1,0,0
76983,89728.00,507.56,507.65,-824,-932,15316,1,0,0
77014,89729.00,507.47,507.65,-672,-800,15348,1,0,0
77043,89728.00,507.56,507.65,-692,-964,15328,1,0,0
77074,89728.00,507.56,507.65,-868,-788,15436,1,0,0
77104,89728.00,507.56,507.65,-720,-932,15392,1,0,0
77134,89728.00,507.56,507.65,-856,-1172,15456,1,0,0
77164,89728.00,507.56,507.65,-688,-936,15400,1,0,0
77199,89728.00,507.56,507.65,-584,-884,15340,1,0,0
77229,89728.00,507.56,507.65,-792,-976,15384,1,0,0
77259,89728.00,507.56,507.65,-760,-840,15488,1,0,0
77289,89728.00,507.56,507.65,-908,-980,15428,1,0,0
77320,89728.00,507.56,507.65,-948,-832,15304,1,0,0
77349,89728.00,507.56,507.65,-812,-892,15436,1,0,0
77380,89728.00,507.56,507.65,-916,-1036,15372,1,0,0
77410,89729.00,507.47,507.65,-836,-968,15376,1,0,0
77441,89729.00,507.47,507.65,-808,-900,15336,1,0,0
77485,89730.00,507.37,507.65,-780,-968,15228,1,0,0
77518,89730.00,507.37,507.65,-912,-960,15388,1,0,0
77549,89731.00,507.28,507.65,-924,-848,15460,1,0,0
77579,89731.00,507.28,507.65,-916,-1024,15340,1,0,0
77609,89731.00,507.28,507.64,-880,-1072,15264,1,0,0
77639,89731.00,507.28,507.64,-848,-864,15436,1,0,0
77670,89731.00,507.28,507.64,-812,-1136,15340,1,0,0
77700,89730.00,507.37,507.64,-848,-1044,15456,1,0,0
77730,89730.00,507.37,507.64,-808,-888,15364,1,0,0
77760,89731.00,507.28,507.64,-804,-1020,15404,1,0,0
77791,89731.00,507.28,507.64,-964,-952,15480,1,0,0
77825,89730.00,507.37,507.64,-836,-892,15432,1,0,0
77854,89730.00,507.37,507.64,-800,-936,15288,1,0,0
77885,89730.00,507.37,507.64,-764,-948,15320,1,0,0
77915,89730.00,507.37,507.64,-768,-884,15260,1,0,0
77945,89730.00,507.37,507.63,-720,-1020,15340,1,0,0
77975,89729.00,507.47,507.63,-836,-692,15388,1,0,0
78006,89730.00,507.37,507.63,-800,-1024,15300,1,0,0
78035,89730.00,507.37,507.63,-688,-992,15344,1,0,0
78066,89730.00,507.37,507.63,-924,-844,15456,1,0,0
78096,89729.00,507.47,507.63,-816,-952,15252,1,0,0
78130,89729.00,507.47,507.63,-720,-932,15364,1,0,0
78160,89729.00,507.47,507.63,-816,-888,15364,1,0,0
78190,89728.00,507.56,507.63,-788,-932,15340,1,0,0
78221,89728.00,507.56,507.63,-820,-836,15460,1,0,0
78251,89728.00,507.56,507.63,-788,-1036,15228,1,0,0
78281,89728.00,507.56,507.63,-716,-960,15272,1,0,0
78311,89728.00,507.56,507.63,-724,-892,15164,1,0,0
78342,89728.00,507.56,507.63,-744,-928,15260,1,0,0
78371,89728.00,507.56,507.63,-776,-944,15348,1,0,0
78402,89728.00,507.56,507.63,-1004,-1068,15344,1,0,0
78445,89728.00,507.56,507.63,-780,-924,15316,1,0,0
78475,89729.00,507.47,507.63,-808,-900,15368,1,0,0
78505,89729.00,507.47,507.63,-808,-860,15380,1,0,0
78535,89729.00,507.47,507.63,-816,-952,15288,1,0,0
78566,89730.00,507.37,507.63,-680,-876,15348,1,0,0
78596,89730.00,507.37,507.63,-816,-988,15288,1,0,0
78626,89731.00,507.28,507.63,-792,-972,15496,1,0,0
78656,89731.00,507.28,507.62,-832,-992,15300,1,0,0
78687,89731.00,507.28,507.62,-696,-920,15264,1,0,0
78721,89731.00,507.28,507.62,-744,-1012,15292,1,0,0
78750,89731.00,507.28,507.62,-724,-892,15408,1,0,0
78781,89732.00,507.19,507.62,-696,-948,15324,1,0,0
78811,89732.00,507.19,507.62,-688,-972,15460,1,0,0
78841,89731.00,507.28,507.62,-876,-920,15480,1,0,0
78871,89731.00,507.28,507.62,-696,-944,15336,1,0,0
78901,89731.00,507.28,507.62,-772,-964,15384,1,0,0
78931,89731.00,507.28,507.61,-700,-976,15376,1,0,0
78961,89730.00,507.37,507.61,-864,-924,15296,1,0,0
78992,89731.00,507.28,507.61,-924,-1008,15264,1,0,0
79026,89731.00,507.28,507.61,-772,-896,15388,1,0,0
79055,89731.00,507.28,507.61,-696,-872,15204,1,0,0
79086,89731.00,507.28,507.61,-948,-992,15480,1,0,0
79130,89731.00,507.28,507.61,-836,-1044,15444,1,0,0
79161,89730.00,507.37,507.61,-864,-872,15428,1,0,0
79191,89729.00,507.47,507.61,-800,-940,15380,1,0,0
79221,89730.00,507.37,507.61,-708,-968,15408,1,0,0
79251,89730.00,507.37,507.61,-844,-940,15416,1,0,0
79281,89729.00,507.47,507.61,-740,-856,15404,1,0,0
79311,89728.00,507.56,507.61,-740,-972,15276,1,0,0
79345,89728.00,507.56,507.61,-820,-1032,15332,1,0,0
79376,89729.00,507.47,507.61,-868,-976,15320,1,0,0
79406,89730.00,507.37,507.60,-816,-1000,15300,1,0,0
79435,89730.00,507.37,507.60,-832,-876,15436,1,0,0
79466,89730.00,507.37,507.60,-744,-896,15308,1,0,0
79496,89729.00,507.47,507.60,-728,-912,15276,1,0,0
79526,89729.00,507.47,507.60,-852,-940,15528,1,0,0
79556,89730.00,507.37,507.60,-836,-984,15464,1,0,0
79587,89730.00,507.37,507.60,-832,-932,15352,1,0,0
79617,89730.00,507.37,507.60,-836,-1012,15276,1,0,0
79650,89730.00,507.37,507.60,-696,-884,15384,1,0,0
79681,89730.00,507.37,507.60,-696,-936,15352,1,0,0
79711,89730.00,507.37,507.60,-828,-948,15348,1,0,0
79740,89730.00,507.37,507.60,-908,-968,15412,1,0,0
79771,89730.00,507.37,507.60,-912,-948,15372,1,0,0
79801,89730.00,507.37,507.60,-796,-988,15320,1,0,0
79832,89730.00,507.37,507.60,-744,-1028,15340,1,0,0
79861,89730.00,507.37,507.59,-804,-976,15320,1,0,0
79892,89731.00,507.28,507.59,-772,-840,15252,1,0,0
79922,89730.00,507.37,507.59,-804,-1036,15304,1,0,0
79955,89731.00,507.28,507.59,-732,-956,15236,1,0,0
79986,89731.00,507.28,507.59,-884,-940,15436,1,0,0
80016,89731.00,507.28,507.59,-792,-880,15332,1,0,0
80047,89730.00,507.37,507.59,-876,-1024,15384,1,0,0
80076,89730.00,507.37,507.59,-932,-896,15512,1,0,0
80106,89730.00,507.37,507.59,-748,-968,15276,1,0,0
80137,89730.00,507.37,507.59,-676,-960,15396,1,0,0
80166,89730.00,507.37,507.59,-868,-844,15480,1,0,0
80206,89730.00,507.37,507.59,-860,-944,15320,1,0,0
80236,89730.00,507.37,507.59,-824,-1000,15296,1,0,0
80270,89730.00,507.37,507.58,-816,-844,15348,1,0,0
80301,89729.00,507.47,507.58,-788,-1100,15328,1,0,0
80330,89729.00,507.47,507.58,-800,-892,15388,1,0,0
80360,89729.00,507.47,507.58,-924,-972,15364,1,0,0
80391,89729.00,507.47,507.58,-808,-980,15276,1,0,0
80420,89729.00,507.47,507.58,-888,-1040,15348,1,0,0
80451,89729.00,507.47,507.58,-852,-960,15260,1,0,0
80481,89730.00,507.37,507.58,-804,-1000,15208,1,0,0
80512,89730.00,507.37,507.58,-820,-868,15592,1,0,0
80545,89730.00,507.37,507.58,-780,-968,15308,1,0,0
80575,89730.00,507.37,507.58,-828,-964,15384,1,0,0
80606,89730.00,507.37,507.58,-816,-904,15400,1,0,0
80635,89731.00,507.28,507.58,-908,-980,15396,1,0,0
80665,89730.00,507.37,507.58,-820,-944,15444,1,0,0
80696,89730.00,507.37,507.58,-712,-932,15288,1,0,0
80726,89730.00,507.37,507.58,-684,-972,15292,1,0,0
80756,89730.00,507.37,507.58,-824,-892,15416,1,0,0
80800,89730.00,507.37,507.57,-736,-948,15288,1,0,0
80830,89730.00,507.37,507.57,-860,-984,15300,1,0,0
80864,89731.00,507.28,507.57,-824,-1020,15388,1,0,0
80894,89731.00,507.28,507.57,-892,-872,15412,1,0,0
80924,89731.00,507.28,507.57,-720,-1008,15180,1,0,0
80955,89731.00,507.28,507.57,-776,-992,15388,1,0,0
80985,89731.00,507.28,507.57,-880,-960,15400,1,0,0
81014,89732.00,507.19,507.57,-828,-1024,15520,1,0,0
81045,89732.00,507.19,507.57,-796,-984,15400,1,0,0
81075,89732.00,507.19,507.57,-732,-988,15292,1,0,0
81105,89732.00,507.19,507.56,-828,-936,15452,1,0,0
81135,89732.00,507.19,507.56,-732,-1004,15304,1,0,0
81169,89731.00,507.28,507.56,-720,-952,15416,1,0,0
81200,89731.00,507.28,507.56,-836,-988,15404,1,0,0
81229,89731.00,507.28,507.56,-896,-972,15452,1,0,0
81259,89731.00,507.28,507.56,-800,-996,15480,1,0,0
81290,89730.00,507.37,507.56,-808,-988,15344,1,0,0
81319,89729.00,507.47,507.56,-760,-1020,15324,1,0,0
81350,89730.00,507.37,507.56,-796,-1072,15300,1,0,0
81380,89730.00,507.37,507.56,-780,-980,15464,1,0,0
81410,89730.00,507.37,507.56,-884,-928,15308,1,0,0
81440,89730.00,507.37,507.56,-788,-944,15468,1,0,0
81474,89730.00,507.37,507.56,-808,-992,15452,1,0,0
81504,89731.00,507.28,507.55,-740,-1000,15516,1,0,0
81534,89731.00,507.28,507.55,-840,-860,15388,1,0,0
81564,89731.00,507.28,507.55,-624,-948,15364,1,0,0
81594,89731.00,507.28,507.55,-792,-932,15388,1,0,0
81625,89730.00,507.37,507.55,-840,-904,15484,1,0,0
81654,89730.00,507.37,507.55,-768,-988,15360,1,0,0
81684,89730.00,507.37,507.55,-824,-956,15468,1,0,0
81715,89730.00,507.37,507.55,-784,-892,15304,1,0,0
81744,89730.00,507.37,507.55,-776,-944,15296,1,0,0
81778,89730.00,507.37,507.55,-816,-960,15368,1,0,0
81809,89730.00,507.37,507.55,-824,-880,15440,1,0,0
81839,89731.00,507.28,507.55,-828,-940,15504,1,0,0
81868,89731.00,507.28,507.55,-760,-900,15400,1,0,0
81899,89732.00,507.19,507.54,-764,-984,15248,1,0,0
81929,89731.00,507.28,507.54,-752,-896,15372,1,0,0
81968,89731.00,507.28,507.54,-692,-936,15428,1,0,0
81998,89730.00,507.37,507.54,-776,-1056,15268,1,0,0
82028,89730.00,507.37,507.54,-736,-852,15428,1,0,0
82062,89729.00,507.47,507.54,-732,-916,15428,1,0,0
82093,89729.00,507.47,507.54,-796,-940,15400,1,0,0
82122,89729.00,507.47,507.54,-780,-940,15284,1,0,0
82152,89729.00,507.47,507.54,-776,-996,15520,1,0,0
82183,89730.00,507.37,507.54,-760,-920,15284,1,0,0
82212,89730.00,507.37,507.54,-772,-924,15280,1,0,0
82243,89730.00,507.37,507.54,-824,-980,15352,1,0,0
82273,89729.00,507.47,507.54,-808,-932,15388,1,0,0
82302,89729.00,507.47,507.54,-788,-964,15428,1,0,0
82333,89729.00,507.47,507.54,-744,-984,15356,1,0,0
82367,89730.00,507.37,507.54,-948,-984,15428,1,0,0
82397,89729.00,507.47,507.54,-776,-1068,15348,1,0,0
82427,89728.00,507.56,507.54,-832,-1060,15316,1,0,0
82471,89729.00,507.47,507.54,-900,-964,15324,1,0,0
82501,89728.00,507.56,507.54,-776,-892,15232,1,0,0
82532,89728.00,507.56,507.54,-808,-1024,15308,1,0,0
82562,89729.00,507.47,507.54,-864,-948,15468,1,0,0
82591,89728.00,507.56,507.54,-852,-992,15460,1,0,0
82622,89728.00,507.56,507.54,-404,-1028,15024,1,0,0
82652,89728.00,507.56,507.54,-892,-896,15444,1,0,0
82685,89729.00,507.47,507.54,-828,-936,15332,1,0,0
82716,89730.00,507.37,507.54,-760,-920,15252,1,0,0
82746,89729.00,507.47,507.54,-860,-1048,15452,1,0,0
82776,89729.00,507.47,507.54,-704,-916,15244,1,0,0
82806,89729.00,507.47,507.54,-844,-960,15440,1,0,0
82836,89729.00,507.47,507.54,-760,-868,15384,1,0,0
82866,89729.00,507.47,507.54,-716,-920,15220,1,0,0
82896,89729.00,507.47,507.53,-716,-944,15244,1,0,0
82926,89729.00,507.47,507.53,-840,-968,15412,1,0,0
82956,89729.00,507.47,507.53,-828,-948,15276,1,0,0
82990,89730.00,507.37,507.53,-880,-1000,15368,1,0,0
83020,89730.00,507.37,507.53,-904,-968,15236,1,0,0
83050,89730.00,507.37,507.53,-668,-940,15220,1,0,0
83081,89731.00,507.28,507.53,-840,-920,15356,1,0,0
83110,89730.00,507.37,507.53,-816,-1044,15468,1,0,0
83140,89730.00,507.37,507.53,-820,-868,15392,1,0,0
83171,89730.00,507.37,507.53,-832,-932,15432,1,0,0
83201,89730.00,507.37,507.53,-864,-912,15528,1,0,0
83230,89730.00,507.37,507.53,-776,-1032,15292,1,0,0
83261,89730.00,507.37,507.53,-736,-956,15324,1,0,0
83295,89730.00,507.37,507.53,-772,-952,15384,1,0,0
83324,89730.00,507.37,507.53,-760,-1008,15372,1,0,0
83354,89730.00,507.37,507.53,-720,-956,15376,1,0,0
83385,89730.00,507.37,507.53,-856,-980,15368,1,0,0
83415,89730.00,507.37,507.53,-804,-852,15308,1,0,0
83444,89729.00,507.47,507.53,-760,-972,15276,1,0,0
83475,89730.00,507.37,507.53,-732,-944,15356,1,0,0
83505,89730.00,507.37,507.53,-660,-928,15156,1,0,0
83534,89731.00,507.28,507.52,-784,-812,15360,1,0,0
83568,89731.00,507.28,507.52,-832,-920,15252,1,0,0
83598,89731.00,507.28,507.52,-776,-948,15400,1,0,0
83628,89731.00,507.28,507.52,-712,-960,15220,1,0,0
83658,89731.00,507.28,507.52,-792,-932,15372,1,0,0
83696,89732.00,507.19,507.52,-880,-980,15488,1,0,0
83727,89732.00,507.19,507.52,-816,-1016,15424,1,0,0
83757,89732.00,507.19,507.52,-832,-932,15480,1,0,0
83786,89733.00,507.09,507.52,-784,-932,15328,1,0,0
83816,89732.00,507.19,507.52,-792,-992,15392,1,0,0
83846,89732.00,507.19,507.51,-816,-984,15376,1,0,0
83965,89733.00,507.09,507.51,-880,-1016,15372,1,0,0
83996,89733.00,507.09,507.51,-704,-1048,15232,1,0,0
84026,89733.00,507.09,507.51,-728,-988,15252,1,0,0
84056,89733.00,507.09,507.51,-588,-988,15084,1,0,0
84085,89732.00,507.19,507.51,-560,-940,15140,1,0,0
84115,89732.00,507.19,507.51,-924,-1020,15472,1,0,0
84146,89732.00,507.19,507.51,-748,-952,15468,1,0,0
84175,89732.00,507.19,507.50,-776,-936,15320,1,0,0
84219,89732.00,507.19,507.50,-820,-984,15352,1,0,0
84250,89732.00,507.19,507.50,-844,-960,15332,1,0,0
84283,89732.00,507.19,507.50,-724,-980,15284,1,0,0
84314,89733.00,507.09,507.50,-800,-868,15412,1,0,0
84344,89733.00,507.09,507.50,-816,-952,15304,1,0,0
84374,89733.00,507.09,507.50,-788,-980,15300,1,0,0
84405,89733.00,507.09,507.50,-848,-968,15284,1,0,0
84434,89733.00,507.09,507.49,-864,-912,15412,1,0,0
84465,89732.00,507.19,507.49,-916,-1048,15404,1,0,0
84495,89732.00,507.19,507.49,-812,-956,15312,1,0,0
84526,89732.00,507.19,507.49,-844,-980,15356,1,0,0
84556,89733.00,507.09,507.49,-948,-972,15376,1,0,0
84590,89733.00,507.09,507.49,-816,-964,15384,1,0,0
84620,89733.00,507.09,507.49,-756,-996,15228,1,0,0
84651,89733.00,507.09,507.49,-840,-940,15328,1,0,0
84680,89732.00,507.19,507.48,-824,-884,15412,1,0,0
84711,89731.00,507.28,507.48,-736,-1032,15256,1,0,0
84742,89731.00,507.28,507.48,-756,-1024,15392,1,0,0
84771,89731.00,507.28,507.48,-892,-948,15380,1,0,0
84802,89731.00,507.28,507.48,-856,-1028,15288,1,0,0
84832,89731.00,507.28,507.48,-856,-944,15328,1,0,0
84862,89730.00,507.37,507.48,-868,-1024,15376,1,0,0
84896,89731.00,507.28,507.48,-920,-980,15420,1,0,0
84927,89731.00,507.28,507.48,-760,-1004,15360,1,0,0
84957,89731.00,507.28,507.48,-752,-1012,15408,1,0,0
84987,89731.00,507.28,507.48,-828,-872,15360,1,0,0
85018,89731.00,507.28,507.48,-812,-940,15368,1,0,0
85048,89732.00,507.19,507.48,-740,-952,15312,1,0,0
85079,89732.00,507.19,507.47,-700,-1008,15332,1,0,0
85108,89732.00,507.19,507.47,-816,-968,15284,1,0,0
85139,89731.00,507.28,507.47,-812,-984,15352,1,0,0
85173,89732.00,507.28,507.47,-724,-800,15512,1,0,0
85203,89732.00,507.19,507.47,-744,-952,15392,1,0,0
85233,89732.00,507.19,507.47,-816,-920,15448,1,0,0
85264,89732.00,507.19,507.47,-868,-972,15348,1,0,0
85294,89731.00,507.28,507.47,-792,-920,15384,1,0,0
85324,89730.00,507.37,507.47,-784,-964,15420,1,0,0
85355,89730.00,507.37,507.47,-692,-1000,15336,1,0,0
85385,89730.00,507.37,507.47,-764,-956,15256,1,0,0
85415,89730.00,507.37,507.47,-744,-932,15416,1,0,0
85445,89730.00,507.37,507.47,-752,-936,15296,1,0,0
85479,89730.00,507.37,507.47,-868,-960,15344,1,0,0
85519,89729.00,507.47,507.47,-840,-940,15400,1,0,0
85549,89729.00,507.47,507.47,-896,-928,15460,1,0,0
85579,89729.00,507.47,507.47,-820,-976,15320,1,0,0
85609,89730.00,507.37,507.47,-892,-952,15420,1,0,0
85640,89731.00,507.28,507.47,-728,-944,15332,1,0,0
85669,89731.00,507.28,507.46,-712,-1056,15388,1,0,0
85700,89732.00,507.19,507.46,-852,-988,15496,1,0,0
85731,89732.00,507.19,507.46,-880,-976,15432,1,0,0
85761,89732.00,507.19,507.46,-808,-984,15324,1,0,0
85794,89732.00,507.19,507.46,-896,-1056,15380,1,0,0
85825,89732.00,507.19,507.46,-824,-1036,15296,1,0,0
85870,89731.00,507.28,507.46,-792,-948,15440,1,0,0
85901,89731.00,507.28,507.46,-724,-952,15316,1,0,0
85931,89730.00,507.37,507.46,-852,-940,15216,1,0,0
85961,89730.00,507.37,507.46,-776,-916,15408,1,0,0
85991,89731.00,507.28,507.46,-896,-980,15524,1,0,0
86022,89731.00,507.28,507.46,-840,-988,15456,1,0,0
86051,89730.00,507.37,507.46,-776,-1036,15444,1,0,0
86082,89731.00,507.28,507.46,-888,-892,15532,1,0,0
86116,89730.00,507.37,507.46,-1156,-928,15748,1,0,0
86147,89730.00,507.37,507.46,-676,-968,15176,1,0,0
86176,89730.00,507.37,507.45,-688,-920,15264,1,0,0
86207,89730.00,507.37,507.45,-848,-1000,15440,1,0,0
86237,89730.00,507.37,507.45,-792,-1036,15356,1,0,0
86267,89729.00,507.47,507.45,-920,-972,15400,1,0,0
86297,89730.00,507.37,507.45,-632,-1028,15132,1,0,0
86328,89730.00,507.37,507.45,-840,-992,15236,1,0,0
86358,89730.00,507.37,507.45,-828,-976,15312,1,0,0
86388,89730.00,507.37,507.45,-856,-932,15408,1,0,0
86422,89730.00,507.37,507.45,-808,-1008,15216,1,0,0
86453,89729.00,507.47,507.45,-876,-980,15416,1,0,0
86482,89729.00,507.47,507.45,-888,-944,15496,1,0,0
86513,89729.00,507.47,507.45,-768,-1012,15336,1,0,0
86543,89729.00,507.47,507.45,-808,-1048,15348,1,0,0
86574,89729.00,507.47,507.45,-884,-936,15408,1,0,0
86603,89729.00,507.47,507.45,-792,-1024,15308,1,0,0
86634,89729.00,507.47,507.45,-824,-988,15472,1,0,0
86665,89729.00,507.47,507.45,-828,-936,15528,1,0,0
86699,89729.00,507.47,507.45,-816,-960,15376,1,0,0
86728,89730.00,507.37,507.45,-800,-1008,15412,1,0,0
86759,89731.00,507.28,507.45,-700,-884,15324,1,0,0
86789,89732.00,507.19,507.45,-784,-944,15344,1,0,0
86819,89732.00,507.19,507.45,-784,-1000,15408,1,0,0
86849,89732.00,507.19,507.45,-764,-904,15348,1,0,0
86880,89733.00,507.09,507.45,-848,-1056,15324,1,0,0
86909,89733.00,507.09,507.45,-652,-932,15388,1,0,0
86940,89733.00,507.09,507.45,-736,-900,15436,1,0,0
86970,89732.00,507.19,507.45,-732,-1024,15344,1,0,0
87005,89732.00,507.19,507.44,-672,-956,15292,1,0,0
87034,89732.00,507.19,507.44,-756,-928,15360,1,0,0
87065,89732.00,507.19,507.44,-848,-1008,15352,1,0,0
87095,89732.00,507.19,507.44,-744,-936,15324,1,0,0
87126,89732.00,507.19,507.44,-800,-968,15484,1,0,0
87155,89732.00,507.19,507.44,-688,-968,15196,1,0,0
87186,89732.00,507.19,507.44,-728,-936,15484,1,0,0
87216,89732.00,507.19,507.44,-836,-932,15408,1,0,0
87246,89732.00,507.19,507.44,-884,-1064,15488,1,0,0
87285,89732.00,507.19,507.44,-804,-908,15480,1,0,0
87319,89733.00,507.09,507.43,-844,-944,15328,1,0,0
87350,89732.00,507.19,507.43,-756,-928,15384,1,0,0
87379,89733.00,507.09,507.43,-896,-964,15452,1,0,0
87410,89733.00,507.09,507.43,-844,-912,15316,1,0,0
87440,89733.00,507.09,507.43,-672,-904,15304,1,0,0
87471,89733.00,507.09,507.43,-708,-980,15308,1,0,0
87515,89733.00,507.09,507.43,-884,-972,15552,1,0,0
87545,89732.00,507.19,507.43,-620,-1040,15372,1,0,0
87575,89732.00,507.19,507.43,-840,-912,15468,1,0,0
87606,89732.00,507.19,507.43,-840,-916,15344,1,0,0
87640,89732.00,507.19,507.42,-644,-884,15188,1,0,0
87670,89732.00,507.19,507.42,-804,-952,15404,1,0,0
87700,89732.00,507.19,507.42,-768,-1008,15400,1,0,0
87731,89732.00,507.19,507.42,-688,-952,15292,1,0,0
87760,89732.00,507.19,507.42,-832,-896,15372,1,0,0
87791,89732.00,507.19,507.42,-784,-944,15292,1,0,0
87821,89731.00,507.28,507.42,-832,-936,15264,1,0,0
87851,89731.00,507.28,507.42,-724,-900,15316,1,0,0
87881,89731.00,507.28,507.42,-860,-988,15260,1,0,0
87911,89731.00,507.28,507.42,-856,-996,15328,1,0,0
87946,89730.00,507.37,507.42,-836,-1092,15344,1,0,0
87975,89731.00,507.28,507.42,-796,-904,15324,1,0,0
88006,89731.00,507.28,507.42,-832,-932,15368,1,0,0
88036,89731.00,507.28,507.42,-796,-924,15420,1,0,0
88067,89732.00,507.19,507.42,-932,-956,15352,1,0,0
88096,89732.00,507.19,507.41,-832,-952,15384,1,0,0
88127,89732.00,507.19,507.41,-936,-932,15276,1,0,0
88157,89732.00,507.19,507.41,-804,-796,15216,1,0,0
88186,89732.00,507.19,507.41,-796,-956,15308,1,0,0
88221,89732.00,507.19,507.41,-780,-932,15348,1,0,0
88251,89731.00,507.28,507.41,-856,-928,15296,1,0,0
88282,89731.00,507.28,507.41,-792,-892,15448,1,0,0
88311,89730.00,507.37,507.41,-908,-904,15480,1,0,0
88342,89730.00,507.37,507.41,-752,-1008,15320,1,0,0
88372,89731.00,507.28,507.41,-832,-944,15396,1,0,0
88401,89730.00,507.37,507.41,-812,-928,15216,1,0,0
88432,89730.00,507.37,507.41,-836,-996,15444,1,0,0
88463,89731.00,507.28,507.41,-948,-912,15384,1,0,0
88493,89731.00,507.28,507.41,-740,-852,15320,1,0,0
88526,89731.00,507.28,507.41,-836,-1000,15472,1,0,0
88557,89732.00,507.19,507.41,-728,-960,15272,1,0,0
88587,89732.00,507.19,507.41,-700,-856,15324,1,0,0
88617,89733.00,507.09,507.41,-736,-928,15228,1,0,0
88647,89733.00,507.09,507.40,-632,-1028,15368,1,0,0
88678,89733.00,507.09,507.40,-808,-1004,15452,1,0,0
88708,89733.00,507.09,507.40,-800,-952,15436,1,0,0
88737,89733.00,507.09,507.40,-656,-980,15340,1,0,0
88768,89733.00,507.09,507.40,-748,-1020,15368,1,0,0
88798,89734.00,507.00,507.40,-860,-992,15252,1,0,0
88833,89734.00,507.00,507.40,-696,-964,15408,1,0,0
88862,89734.00,507.00,507.40,-876,-1008,15420,1,0,0
88892,89734.00,507.00,507.39,-896,-972,15348,1,0,0
88923,89734.00,507.00,507.39,-892,-1080,15500,1,0,0
88952,89733.00,507.09,507.39,-780,-876,15492,1,0,0
88983,89733.00,507.09,507.39,-804,-1048,15224,1,0,0
89022,89733.00,507.09,507.39,-752,-968,15356,1,0,0
89052,89733.00,507.09,507.39,-748,-940,15380,1,0,0
89082,89733.00,507.09,507.39,-736,-920,15204,1,0,0
89112,89733.00,507.09,507.39,-872,-980,15456,1,0,0
89169,89733.00,507.09,507.39,-752,-928,15444,1,0,0
89200,89733.00,507.09,507.38,-864,-864,15280,1,0,0
89230,89733.00,507.09,507.38,-804,-976,15360,1,0,0
89261,89733.00,507.09,507.38,-784,-880,15268,1,0,0
89290,89732.00,507.19,507.38,-792,-920,15264,1,0,0
89321,89733.00,507.09,507.38,-720,-860,15236,1,0,0
89351,89732.00,507.19,507.38,-748,-900,15416,1,0,0
89380,89733.00,507.09,507.38,-816,-1048,15352,1,0,0
89411,89732.00,507.19,507.38,-744,-1000,15544,1,0,0
89441,89732.00,507.19,507.38,-736,-916,15364,1,0,0
89476,89732.00,507.19,507.38,-856,-904,15412,1,0,0
89505,89732.00,507.19,507.38,-812,-856,15336,1,0,0
89535,89732.00,507.19,507.37,-840,-1004,15452,1,0,0
89566,89731.00,507.28,507.37,-788,-1052,15348,1,0,0
89595,89732.00,507.19,507.37,-932,-972,15456,1,0,0
89626,89732.00,507.19,507.37,-716,-1028,15380,1,0,0
89656,89732.00,507.19,507.37,-776,-972,15428,1,0,0
89687,89732.00,507.19,507.37,-852,-1016,15372,1,0,0
89716,89732.00,507.19,507.37,-724,-844,15284,1,0,0
89750,89732.00,507.19,507.37,-744,-948,15308,1,0,0
89781,89731.00,507.28,507.37,-792,-1028,15348,1,0,0
89810,89731.00,507.28,507.37,-892,-804,15316,1,0,0
89841,89730.00,507.37,507.37,-928,-940,15372,1,0,0
89871,89730.00,507.37,507.37,-808,-996,15364,1,0,0
89901,89729.00,507.47,507.37,-768,-956,15284,1,0,0
89931,89730.00,507.37,507.37,-820,-920,15220,1,0,0
89961,89730.00,507.37,507.37,-808,-940,15400,1,0,0
89992,89730.00,507.37,507.37,-892,-940,15264,1,0,0
90021,89730.00,507.37,507.37,-952,-996,15500,1,0,0
90055,89730.00,507.37,507.37,-820,-892,15356,1,0,0
90086,89730.00,507.37,507.37,-860,-944,15324,1,0,0
90116,89731.00,507.28,507.37,-704,-1060,15328,1,0,0
90145,89731.00,507.28,507.37,-840,-912,15356,1,0,0
90176,89730.00,507.37,507.37,-892,-912,15372,1,0,0
90206,89731.00,507.28,507.37,-840,-960,15392,1,0,0
90236,89731.00,507.28,507.37,-856,-836,15488,1,0,0
90266,89732.00,507.28,507.37,-672,-860,15252,1,0,0
90297,89732.00,507.19,507.37,-596,-876,15372,1,0,0
90327,89732.00,507.19,507.37,-756,-1044,15404,1,0,0
90360,89732.00,507.19,507.37,-660,-968,15284,1,0,0
90391,89732.00,507.19,507.37,-692,-964,15244,1,0,0
90421,89731.00,507.28,507.37,-848,-952,15556,1,0,0
90450,89731.00,507.28,507.36,-780,-952,15352,1,0,0
90481,89731.00,507.28,507.36,-832,-984,15392,1,0,0
90511,89731.00,507.28,507.36,-784,-964,15436,1,0,0
90542,89731.00,507.28,507.36,-752,-1056,15304,1,0,0
90571,89731.00,507.28,507.36,-908,-968,15372,1,0,0
90602,89730.00,507.37,507.36,-840,-884,15292,1,0,0
90632,89731.00,507.28,507.36,-868,-1048,15256,1,0,0
90665,89731.00,507.28,507.36,-752,-1008,15436,1,0,0
90696,89731.00,507.28,507.36,-728,-960,15384,1,0,0
90726,89730.00,507.37,507.36,-728,-1056,15380,1,0,0
90756,89731.00,507.28,507.36,-880,-948,15388,1,0,0
90796,89731.00,507.28,507.36,-760,-912,15264,1,0,0
90840,89732.00,507.28,507.36,-888,-864,15348,1,0,0
90870,89732.00,507.19,507.36,-820,-960,15148,1,0,0
90900,89731.00,507.28,507.36,-784,-1000,15340,1,0,0
90931,89731.00,507.28,507.36,-768,-992,15380,1,0,0
90960,89732.00,507.19,507.36,-876,-952,15368,1,0,0
90994,89732.00,507.19,507.36,-888,-940,15336,1,0,0
91025,89732.00,507.19,507.36,-792,-1000,15236,1,0,0
91055,89732.00,507.19,507.36,-884,-940,15460,1,0,0
91084,89732.00,507.19,507.36,-792,-928,15424,1,0,0
91115,89732.00,507.19,507.36,-736,-992,15432,1,0,0
91145,89731.00,507.28,507.36,-848,-876,15452,1,0,0
91175,89731.00,507.28,507.36,-836,-880,15404,1,0,0
91205,89731.00,507.28,507.36,-876,-1084,15428,1,0,0
91236,89732.00,507.19,507.36,-892,-956,15424,1,0,0
91270,89732.00,507.19,507.36,-704,-952,15352,1,0,0
91299,89732.00,507.19,507.35,-736,-928,15344,1,0,0
91329,89733.00,507.09,507.35,-892,-892,15412,1,0,0
91360,89732.00,507.19,507.35,-752,-980,15352,1,0,0
91389,89732.00,507.19,507.35,-872,-968,15464,1,0,0
91420,89731.00,507.28,507.35,-904,-952,15200,1,0,0
91450,89731.00,507.28,507.35,-732,-932,15252,1,0,0
91480,89731.00,507.28,507.35,-864,-868,15300,1,0,0
91510,89732.00,507.19,507.35,-716,-916,15276,1,0,0
91540,89733.00,507.09,507.35,-828,-856,15352,1,0,0
91574,89733.00,507.09,507.35,-912,-972,15432,1,0,0
91604,89732.00,507.19,507.35,-808,-832,15396,1,0,0
91634,89732.00,507.19,507.35,-832,-856,15340,1,0,0
91664,89732.00,507.19,507.35,-776,-948,15428,1,0,0
91695,89732.00,507.19,507.35,-684,-964,15376,1,0,0
91724,89732.00,507.19,507.35,-736,-1024,15516,1,0,0
91755,89732.00,507.19,507.35,-844,-864,15524,1,0,0
91785,89732.00,507.19,507.35,-816,-924,15352,1,0,0
91814,89732.00,507.19,507.34,-756,-952,15400,1,0,0
91845,89733.00,507.09,507.34,-884,-920,15260,1,0,0
91879,89733.00,507.09,507.34,-644,-920,15308,1,0,0
91909,89733.00,507.09,507.34,-844,-856,15320,1,0,0
91939,89733.00,507.09,507.34,-808,-940,15428,1,0,0
91969,89733.00,507.09,507.34,-868,-908,15496,1,0,0
91999,89733.00,507.09,507.34,-856,-984,15332,1,0,0
92029,89733.00,507.09,507.34,-800,-852,15200,1,0,0
92059,89733.00,507.09,507.34,-760,-1008,15376,1,0,0
92089,89734.00,507.00,507.34,-848,-1012,15488,1,0,0
92120,89733.00,507.09,507.34,-684,-900,15380,1,0,0
92149,89733.00,507.09,507.34,-932,-932,15380,1,0,0
92183,89733.00,507.09,507.33,-984,-908,15368,1,0,0
92214,89733.00,507.09,507.33,-784,-972,15396,1,0,0
92243,89733.00,507.09,507.33,-900,-932,15424,1,0,0
92273,89733.00,507.09,507.33,-852,-960,15424,1,0,0
92304,89733.00,507.09,507.33,-732,-964,15260,1,0,0
92334,89733.00,507.09,507.33,-780,-900,15360,1,0,0
92364,89734.00,507.00,507.33,-808,-984,15292,1,0,0
92394,89733.00,507.09,507.33,-736,-1016,15328,1,0,0
92424,89734.00,507.00,507.33,-796,-928,15372,1,0,0
92469,89733.00,507.09,507.33,-832,-952,15316,1,0,0
92503,89733.00,507.09,507.33,-808,-904,15348,1,0,0
92541,89733.00,507.09,507.32,-704,-972,15376,1,0,0
92572,89733.00,507.09,507.32,-832,-828,15468,1,0,0
92602,89734.00,507.00,507.32,-816,-1012,15320,1,0,0
92632,89734.00,507.00,507.32,-792,-952,15340,1,0,0
92662,89734.00,507.00,507.32,-740,-964,15232,1,0,0
92692,89733.00,507.09,507.32,-780,-1012,15336,1,0,0
92723,89733.00,507.09,507.32,-780,-1020,15300,1,0,0
92752,89734.00,507.00,507.32,-848,-888,15460,1,0,0
92782,89734.00,507.00,507.32,-880,-912,15304,1,0,0
92816,89733.00,507.09,507.32,-752,-868,15464,1,0,0
92847,89733.00,507.09,507.31,-828,-916,15376,1,0,0
92876,89734.00,507.00,507.31,-728,-900,15392,1,0,0
92906,89734.00,507.00,507.31,-668,-900,15316,1,0,0
92937,89733.00,507.09,507.31,-684,-920,15244,1,0,0
92966,89733.00,507.09,507.31,-932,-1056,15552,1,0,0
92997,89733.00,507.09,507.31,-696,-832,15380,1,0,0
93027,89733.00,507.09,507.31,-712,-1044,15260,1,0,0
93057,89732.00,507.19,507.31,-780,-996,15412,1,0,0
93090,89732.00,507.19,507.31,-888,-892,15352,1,0,0
93121,89732.00,507.19,507.31,-772,-888,15416,1,0,0
93151,89732.00,507.19,507.31,-776,-944,15432,1,0,0
93180,89732.00,507.19,507.31,-792,-1032,15276,1,0,0
93211,89732.00,507.19,507.31,-800,-968,15220,1,0,0
93241,89732.00,507.19,507.31,-824,-904,15292,1,0,0
93271,89732.00,507.19,507.31,-972,-804,15532,1,0,0
93301,89732.00,507.19,507.31,-812,-960,15336,1,0,0
93331,89732.00,507.19,507.30,-868,-1024,15344,1,0,0
93362,89731.00,507.28,507.30,-800,-976,15448,1,0,0
93394,89731.00,507.28,507.30,-828,-1012,15204,1,0,0
93425,89732.00,507.19,507.30,-760,-900,15372,1,0,0
93455,89732.00,507.19,507.30,-808,-960,15344,1,0,0
93485,89733.00,507.09,507.30,-812,-960,15396,1,0,0
93514,89733.00,507.09,507.30,-772,-812,15332,1,0,0
93544,89733.00,507.09,507.30,-784,-932,15268,1,0,0
93574,89733.00,507.09,507.30,-768,-952,15388,1,0,0
93603,89733.00,507.09,507.30,-772,-900,15284,1,0,0
93634,89733.00,507.09,507.30,-952,-1016,15364,1,0,0
93664,89733.00,507.09,507.30,-712,-924,15312,1,0,0
93697,89733.00,507.09,507.30,-716,-952,15448,1,0,0
93727,89732.00,507.19,507.30,-848,-968,15320,1,0,0
93757,89731.00,507.28,507.30,-828,-844,15352,1,0,0
93787,89731.00,507.28,507.30,-748,-1000,15356,1,0,0
93816,89731.00,507.28,507.30,-840,-972,15336,1,0,0
93846,89731.00,507.28,507.30,-748,-888,15540,1,0,0
93877,89731.00,507.28,507.30,-788,-996,15380,1,0,0
93906,89732.00,507.19,507.30,-872,-1080,15484,1,0,0
93936,89732.00,507.19,507.30,-760,-952,15336,1,0,0
93966,89733.00,507.09,507.30,-648,-916,15280,1,0,0
94000,89733.00,507.09,507.30,-776,-924,15384,1,0,0
94029,89733.00,507.09,507.29,-856,-920,15324,1,0,0
94060,89732.00,507.19,507.29,-652,-952,15220,1,0,0
94106,89732.00,507.19,507.29,-748,-940,15408,1,0,0
94136,89732.00,507.19,507.29,-804,-896,15484,1,0,0
94167,89732.00,507.19,507.29,-848,-936,15336,1,0,0
94196,89731.00,507.28,507.29,-792,-1028,15312,1,0,0
94227,89731.00,507.28,507.29,-752,-992,15180,1,0,0
94258,89732.00,507.19,507.29,-836,-952,15464,1,0,0
94297,89732.00,507.19,507.29,-780,-936,15292,1,0,0
94330,89732.00,507.19,507.29,-872,-928,15268,1,0,0
94361,89731.00,507.28,507.29,-660,-856,15460,1,0,0
94391,89731.00,507.28,507.29,-928,-848,15396,1,0,0
94422,89731.00,507.28,507.29,-764,-896,15396,1,0,0
94451,89731.00,507.28,507.29,-904,-1060,15412,1,0,0
94482,89730.00,507.37,507.29,-720,-956,15372,1,0,0
94513,89729.00,507.47,507.29,-876,-1012,15452,1,0,0
94542,89729.00,507.47,507.29,-872,-868,15372,1,0,0
94573,89729.00,507.47,507.29,-684,-968,15324,1,0,0
94607,89729.00,507.47,507.29,-728,-988,15476,1,0,0
94638,89729.00,507.47,507.29,-792,-1020,15260,1,0,0
94667,89728.00,507.56,507.30,-776,-984,15356,1,0,0
94698,89728.00,507.56,507.30,-872,-916,15240,1,0,0
94728,89729.00,507.47,507.30,-876,-992,15392,1,0,0
94758,89728.00,507.56,507.30,-824,-840,15220,1,0,0
94789,89729.00,507.47,507.30,-784,-900,15308,1,0,0
94819,89729.00,507.47,507.30,-740,-968,15452,1,0,0
94850,89730.00,507.37,507.30,-804,-980,15376,1,0,0
94879,89730.00,507.37,507.30,-908,-876,15368,1,0,0
94914,89730.00,507.37,507.30,-792,-908,15360,1,0,0
94944,89731.00,507.28,507.30,-824,-908,15324,1,0,0
94974,89732.00,507.19,507.30,-856,-836,15384,1,0,0
95004,89733.00,507.09,507.30,-756,-976,15220,1,0,0
95035,89733.00,507.09,507.30,-656,-884,15336,1,0,0
95065,89733.00,507.09,507.30,-836,-956,15332,1,0,0
95095,89733.00,507.09,507.30,-756,-928,15468,1,0,0
95125,89734.00,507.00,507.30,-884,-908,15368,1,0,0
95156,89733.00,507.09,507.30,-824,-960,15352,1,0,0
95185,89733.00,507.09,507.29,-752,-1040,15388,1,0,0
95220,89733.00,507.09,507.29,-760,-868,15292,1,0,0
95250,89733.00,507.09,507.29,-804,-868,15548,1,0,0
95281,89733.00,507.09,507.29,-792,-916,15424,1,0,0
95310,89733.00,507.09,507.29,-788,-920,15320,1,0,0
95341,89732.00,507.19,507.29,-860,-984,15380,1,0,0
95371,89732.00,507.19,507.29,-756,-908,15324,1,0,0
95401,89732.00,507.19,507.29,-912,-956,15304,1,0,0
95431,89732.00,507.19,507.29,-772,-940,15292,1,0,0
95462,89732.00,507.19,507.29,-856,-916,15212,1,0,0
95493,89732.00,507.19,507.29,-872,-944,15456,1,0,0
95526,89731.00,507.28,507.29,-816,-816,15212,1,0,0
95556,89731.00,507.28,507.29,-888,-1072,15332,1,0,0
95587,89730.00,507.37,507.29,-788,-888,15380,1,0,0
95617,89730.00,507.37,507.29,-908,-848,15404,1,0,0
95647,89730.00,507.37,507.29,-744,-1000,15340,1,0,0
95677,89730.00,507.37,507.29,-672,-1028,15404,1,0,0
95708,89730.00,507.37,507.29,-752,-936,15308,1,0,0
95754,89731.00,507.37,507.29,-752,-1056,15372,1,0,0
95783,89731.00,507.28,507.29,-836,-928,15376,1,0,0
95814,89731.00,507.28,507.29,-880,-888,15488,1,0,0
95848,89731.00,507.28,507.29,-824,-916,15404,1,0,0
95879,89730.00,507.37,507.29,-760,-920,15440,1,0,0
95908,89730.00,507.37,507.29,-688,-996,15284,1,0,0
95939,89730.00,507.37,507.29,-748,-948,15284,1,0,0
95969,89731.00,507.37,507.29,-912,-844,15648,1,0,0
96000,89731.00,507.28,507.29,-640,-880,15396,1,0,0
96038,89730.00,507.37,507.29,-1368,-1348,15040,1,0,0
96069,89730.00,507.37,507.29,-708,-1176,14996,1,0,0
96099,89730.00,507.37,507.29,-672,-1180,14976,1,0,0
96133,89729.00,507.47,507.29,-572,-964,15304,1,0,0
96163,89730.00,507.37,507.29,-744,-1048,15320,1,0,0
96193,89729.00,507.47,507.29,-812,-928,15536,1,0,0
96224,89729.00,507.47,507.30,-620,-960,15400,1,0,0
96253,89729.00,507.47,507.30,-712,-1020,15308,1,0,0
96284,89729.00,507.47,507.30,-708,-896,15368,1,0,0
96315,89729.00,507.47,507.30,-780,-884,15276,1,0,0
96345,89728.00,507.56,507.30,-816,-924,15304,1,0,0
96375,89729.00,507.47,507.30,-696,-1040,15348,1,0,0
96405,89729.00,507.47,507.30,-840,-868,15480,1,0,0
96439,89729.00,507.47,507.30,-848,-1064,15384,1,0,0
96470,89729.00,507.47,507.30,-824,-892,15412,1,0,0
96499,89729.00,507.47,507.30,-748,-848,15396,1,0,0
96530,89730.00,507.37,507.30,-684,-940,15436,1,0,0
96560,89730.00,507.37,507.30,-768,-900,15356,1,0,0
96590,89730.00,507.37,507.30,-820,-1000,15316,1,0,0
96620,89730.00,507.37,507.30,-784,-900,15364,1,0,0
96651,89730.00,507.37,507.30,-876,-944,15316,1,0,0
96680,89730.00,507.37,507.30,-776,-976,15256,1,0,0
96711,89730.00,507.37,507.30,-868,-908,15420,1,0,0
96745,89730.00,507.37,507.30,-960,-984,15400,1,0,0
96776,89731.00,507.28,507.30,-704,-992,15404,1,0,0
96805,89731.00,507.28,507.30,-780,-992,15380,1,0,0
96836,89730.00,507.37,507.30,-828,-960,15460,1,0,0
96866,89730.00,507.37,507.30,-728,-1044,15284,1,0,0
96897,89730.00,507.37,507.30,-892,-1032,15460,1,0,0
96926,89731.00,507.28,507.30,-648,-1020,15284,1,0,0
96957,89731.00,507.28,507.30,-772,-920,15344,1,0,0
96987,89731.00,507.28,507.30,-800,-1012,15272,1,0,0
97017,89731.00,507.28,507.30,-776,-968,15300,1,0,0
97051,89731.00,507.28,507.30,-880,-1036,15392,1,0,0
97081,89732.00,507.19,507.30,-844,-880,15376,1,0,0
97112,89732.00,507.19,507.30,-792,-848,15280,1,0,0
97141,89732.00,507.19,507.30,-796,-896,15404,1,0,0
97172,89732.00,507.19,507.30,-728,-928,15440,1,0,0
97202,89732.00,507.19,507.30,-852,-852,15328,1,0,0
97232,89732.00,507.19,507.30,-832,-932,15176,1,0,0
97262,89733.00,507.09,507.30,-816,-1000,15240,1,0,0
97293,89733.00,507.09,507.30,-776,-884,15328,1,0,0
97323,89733.00,507.09,507.30,-744,-964,15488,1,0,0
97356,89732.00,507.19,507.30,-744,-872,15348,1,0,0
97402,89732.00,507.19,507.30,-772,-872,15504,1,0,0
97433,89731.00,507.28,507.30,-820,-988,15488,1,0,0
97463,89730.00,507.37,507.30,-776,-1028,15428,1,0,0
97494,89730.00,507.37,507.30,-744,-920,15240,1,0,0
97523,89729.00,507.47,507.30,-772,-1012,15420,1,0,0
97554,89729.00,507.47,507.30,-900,-1024,15452,1,0,0
97584,89729.00,507.47,507.30,-796,-840,15336,1,0,0
97614,89729.00,507.47,507.30,-800,-992,15364,1,0,0
97648,89729.00,507.47,507.30,-792,-964,15316,1,0,0
97678,89729.00,507.47,507.30,-864,-912,15468,1,0,0
97709,89730.00,507.37,507.30,-608,-936,15284,1,0,0
97738,89730.00,507.37,507.30,-936,-960,15384,1,0,0
97769,89730.00,507.37,507.30,-868,-888,15436,1,0,0
97808,89730.00,507.37,507.30,-744,-864,15396,1,0,0
97838,89730.00,507.37,507.30,-856,-788,15480,1,0,0
97868,89730.00,507.37,507.30,-720,-968,15408,1,0,0
97898,89730.00,507.37,507.30,-800,-1000,15328,1,0,0
97929,89731.00,507.28,507.30,-936,-992,15356,1,0,0
97963,89731.00,507.28,507.30,-804,-920,15488,1,0,0
97993,89730.00,507.37,507.30,-844,-892,15320,1,0,0
98023,89731.00,507.28,507.30,-892,-1048,15500,1,0,0
98054,89730.00,507.37,507.30,-696,-880,15312,1,0,0
98083,89730.00,507.37,507.30,-796,-968,15388,1,0,0
98114,89731.00,507.28,507.30,-852,-1000,15392,1,0,0
98144,89731.00,507.28,507.30,-836,-912,15428,1,0,0
98174,89731.00,507.28,507.30,-836,-1012,15348,1,0,0
