Time,Pascal,alt,KMF,ax,ay,az,LaunchTime,ApoTime,LandTime41679,89735.00,506.91,507.08,1088,10092,10856,1,0,0
41709,89734.00,507.00,507.08,-4352,-2052,17448,1,0,0
41740,89734.00,507.00,507.08,-2020,-2556,13876,1,0,0
41771,89734.00,507.00,507.08,-3404,-4376,15640,1,0,0
41801,89735.00,506.91,507.08,-1624,-2108,15672,1,0,0
41832,89735.00,506.91,507.08,-220,-660,15136,1,0,0
41862,89736.00,506.82,507.08,-392,-1076,16380,1,0,0
41892,89735.00,506.91,507.08,-376,-3008,15552,1,0,0
41923,89735.00,506.91,507.08,720,-2252,15848,1,0,0
41957,89735.00,506.91,507.08,1864,-2536,12920,1,0,0
41997,89736.00,506.82,507.08,1220,-1408,14544,1,0,0
42028,89736.00,506.82,507.08,864,-492,15332,1,0,0
42059,89736.00,506.82,507.08,320,-1312,14820,1,0,0
42090,89735.00,506.91,507.08,1684,-1292,15552,1,0,0
42121,89735.00,506.91,507.08,1096,-1032,16360,1,0,0
42151,89735.00,506.91,507.08,1880,-1176,15548,1,0,0
42182,89735.00,506.91,507.08,1364,188,16128,1,0,0
42213,89735.00,506.91,507.08,2188,400,15612,1,0,0
42244,89735.00,506.91,507.08,2480,188,14348,1,0,0
42278,89734.00,507.00,507.08,2680,864,15276,1,0,0
42309,89734.00,507.00,507.08,4472,144,16340,1,0,0
42340,89733.00,507.09,507.08,2360,768,14860,1,0,0
42372,89733.00,507.09,507.08,-1084,-136,21756,1,0,0
42402,89733.00,507.09,507.08,1244,704,13472,1,0,0
42433,89733.00,507.09,507.08,2092,-268,15752,1,0,0
42464,89734.00,507.00,507.08,476,-284,16696,1,0,0
42494,89734.00,507.00,507.08,1124,868,16544,1,0,0
42525,89733.00,507.09,507.08,4108,360,15208,1,0,0
42578,89734.00,507.00,507.08,2284,48,15020,1,0,0
42613,89734.00,507.00,507.08,2372,-324,15800,1,0,0
42644,89734.00,507.00,507.08,2088,808,15232,1,0,0
42675,89734.00,507.00,507.08,2640,340,14936,1,0,0
42705,89733.00,507.09,507.08,1984,152,14796,1,0,0
42736,89733.00,507.09,507.08,3760,532,14800,1,0,0
42768,89733.00,507.09,507.08,2788,108,15736,1,0,0
42799,89734.00,507.00,507.08,2964,704,15200,1,0,0
42829,89734.00,507.00,507.08,2648,572,15212,1,0,0
42860,89734.00,507.00,507.08,3456,728,15444,1,0,0
42891,89734.00,507.00,507.08,3436,332,14640,1,0,0
42926,89733.00,507.09,507.08,3260,328,15088,1,0,0
42956,89734.00,507.00,507.08,3512,172,15368,1,0,0
42987,89733.00,507.09,507.08,3388,184,15692,1,0,0
43018,89733.00,507.09,507.08,3208,-132,15104,1,0,0
43048,89734.00,507.00,507.08,3540,0,15648,1,0,0
43079,89733.00,507.09,507.08,2736,200,15336,1,0,0
43110,89733.00,507.09,507.08,2508,-196,15772,1,0,0
43141,89733.00,507.09,507.08,1680,-372,14068,1,0,0
43171,89733.00,507.09,507.08,2964,1364,15460,1,0,0
43202,89733.00,507.09,507.08,2288,516,15168,1,0,0
43237,89733.00,507.09,507.08,2068,144,15072,1,0,0
43268,89733.00,507.09,507.08,1836,204,15304,1,0,0
43299,89733.00,507.09,507.08,1808,920,14860,1,0,0
43330,89733.00,507.09,507.08,1360,692,14416,1,0,0
43361,89733.00,507.09,507.08,1012,188,14924,1,0,0
43392,89733.00,507.09,507.08,-3796,-1756,13648,1,0,0
43422,89733.00,507.09,507.08,5128,452,12028,1,0,0
43453,89734.00,507.00,507.08,2956,-720,13768,1,0,0
43484,89734.00,507.00,507.08,1660,-736,16596,1,0,0
43514,89734.00,507.00,507.08,3592,-184,15060,1,0,0
43549,89735.00,506.91,507.08,3364,-504,14776,1,0,0
43580,89735.00,506.91,507.08,2432,-1252,15040,1,0,0
43611,89735.00,506.91,507.07,2612,-1948,15612,1,0,0
43642,89735.00,506.91,507.07,2452,-2828,14392,1,0,0
43673,89734.00,507.00,507.07,1072,-3364,16924,1,0,0
43704,89735.00,506.91,507.07,4756,-2484,14816,1,0,0
43735,89735.00,506.91,507.07,1224,-5728,13364,1,0,0
43765,89735.00,506.91,507.07,3372,-2068,15884,1,0,0
43805,89735.00,506.91,507.07,3180,-4436,16876,1,0,0
43836,89735.00,506.91,507.07,2612,-3560,16112,1,0,0
43871,89735.00,506.91,507.07,2252,-4568,15280,1,0,0
43901,89735.00,506.91,507.07,3908,-2952,14476,1,0,0
43932,89734.00,506.91,507.07,2804,-3960,15552,1,0,0
43964,89734.00,507.00,507.07,3084,-4784,13796,1,0,0
43995,89734.00,507.00,507.07,4136,-3424,12200,1,0,0
44025,89734.00,507.00,507.07,3912,-3672,14168,1,0,0
44056,89734.00,507.00,507.07,5420,-1856,16604,1,0,0
44109,89733.00,507.09,507.07,1616,-3136,14472,1,0,0
44140,89734.00,507.00,507.07,-800,-4760,9200,1,0,0
44175,89734.00,507.00,507.07,5436,-3624,12160,1,0,0
44206,89734.00,507.00,507.07,1504,-3488,14976,1,0,0
44236,89733.00,507.09,507.07,1544,-4088,14848,1,0,0
44267,89733.00,507.09,507.07,1720,-3980,14680,1,0,0
44299,89734.00,507.00,507.07,1436,-4148,14824,1,0,0
44329,89735.00,506.91,507.07,1552,-4056,14956,1,0,0
44360,89735.00,506.91,507.07,1516,-4032,14720,1,0,0
44391,89735.00,506.91,507.07,1552,-4024,14960,1,0,0
44422,89735.00,506.91,507.07,1476,-4096,14832,1,0,0
44452,89736.00,506.82,507.07,1516,-4060,14804,1,0,0
44487,89735.00,506.91,507.07,1580,-3996,14784,1,0,0
44518,89735.00,506.91,507.07,1568,-4028,14820,1,0,0
44549,89735.00,506.91,507.07,1528,-4072,14776,1,0,0
44579,89735.00,506.91,507.07,1484,-4012,14812,1,0,0
44610,89735.00,506.91,507.07,1552,-4120,14580,1,0,0
44642,89734.00,507.00,507.07,1412,-4048,14756,1,0,0
44673,89734.00,507.00,507.07,1376,-3960,14912,1,0,0
44703,89733.00,507.09,507.07,1528,-4036,14812,1,0,0
44734,89734.00,507.00,507.07,1508,-4116,14864,1,0,0
44765,89734.00,507.00,507.07,1356,-4000,14940,1,0,0
44800,89734.00,507.00,507.07,1360,-4084,14732,1,0,0
44830,89735.00,506.91,507.07,1428,-3936,14844,1,0,0
44861,89735.00,506.91,507.07,1348,-4060,14684,1,0,0
44892,89735.00,506.91,507.07,1520,-4156,14744,1,0,0
44922,89734.00,507.00,507.07,1404,-4060,14868,1,0,0
44954,89734.00,507.00,507.07,1392,-4124,14824,1,0,0
44985,89735.00,506.91,507.07,1392,-4144,14844,1,0,0
45016,89735.00,506.91,507.07,1480,-4008,14904,1,0,0
45046,89734.00,507.00,507.07,1404,-4028,14936,1,0,0
45081,89735.00,506.91,507.07,1308,-3964,14924,1,0,0
45112,89735.00,506.91,507.07,1404,-4088,14788,1,0,0
45143,89734.00,507.00,507.07,1420,-4152,14820,1,0,0
45173,89733.00,507.09,507.07,1448,-4016,14848,1,0,0
45204,89733.00,507.09,507.07,1300,-4000,14856,1,0,0
45235,89733.00,507.09,507.07,1452,-4160,14760,1,0,0
45265,89733.00,507.09,507.07,1392,-4032,14792,1,0,0
45296,89733.00,507.09,507.07,1304,-4132,14952,1,0,0
45327,89733.00,507.09,507.07,1452,-4164,14744,1,0,0
45359,89733.00,507.09,507.07,1412,-4100,14744,1,0,0
45392,89733.00,507.09,507.07,1364,-4160,14732,1,0,0
45423,89733.00,507.09,507.07,1292,-4044,14936,1,0,0
45455,89733.00,507.09,507.07,1304,-3952,14896,1,0,0
45486,89731.00,507.28,507.07,1364,-4004,14660,1,0,0
45516,89731.00,507.28,507.07,1304,-4068,14852,1,0,0
45547,89731.00,507.28,507.07,1372,-4020,14904,1,0,0
45609,89731.00,507.28,507.07,1312,-4180,14864,1,0,0
45640,89731.00,507.28,507.07,1376,-4052,14904,1,0,0
45671,89731.00,507.28,507.07,1332,-4008,14904,1,0,0
45702,89731.00,507.28,507.07,1292,-3972,14728,1,0,0
45730,89731.00,507.28,507.07,1344,-4008,14736,1,0,0
45761,89731.00,507.28,507.07,1488,-4068,14820,1,0,0
45792,89731.00,507.28,507.07,1244,-4060,15024,1,0,0
45822,89730.00,507.37,507.07,1244,-4056,14976,1,0,0
45853,89730.00,507.37,507.07,1400,-4156,14748,1,0,0
45884,89730.00,507.37,507.07,1380,-4132,14940,1,0,0
45915,89730.00,507.37,507.07,1392,-3960,15144,1,0,0
45945,89730.00,507.37,507.07,1272,-4108,14812,1,0,0
45977,89730.00,507.37,507.07,1412,-4056,14808,1,0,0
46011,89730.00,507.37,507.07,1392,-4232,14808,1,0,0
46042,89731.00,507.28,507.08,1208,-4088,14848,1,0,0
46073,89731.00,507.28,507.08,1396,-4072,14812,1,0,0
46104,89731.00,507.28,507.08,1348,-4024,14788,1,0,0
46135,89730.00,507.37,507.08,1280,-4220,14840,1,0,0
46166,89731.00,507.28,507.08,1320,-3968,14804,1,0,0
46196,89731.00,507.28,507.08,1332,-4036,14732,1,0,0
46227,89731.00,507.28,507.08,1416,-4112,14804,1,0,0
46258,89731.00,507.28,507.08,1296,-4016,15044,1,0,0
46288,89732.00,507.19,507.08,1432,-4124,14668,1,0,0
46323,89733.00,507.09,507.08,1308,-3976,14968,1,0,0
46354,89733.00,507.09,507.08,1300,-3956,14860,1,0,0
46385,89733.00,507.09,507.08,1340,-4080,14772,1,0,0
46415,89734.00,507.00,507.08,1372,-4056,14884,1,0,0
46446,89734.00,507.00,507.08,1436,-4164,14668,1,0,0
46477,89734.00,507.00,507.08,1372,-4156,14644,1,0,0
46508,89734.00,507.00,507.08,1300,-4136,14928,1,0,0
46538,89734.00,507.00,507.08,1316,-3976,14796,1,0,0
46569,89734.00,507.00,507.08,1372,-4096,14576,1,0,0
46604,89734.00,507.00,507.08,1388,-4092,14752,1,0,0
46635,89734.00,507.00,507.08,1332,-4104,14880,1,0,0
46665,89734.00,507.00,507.08,1312,-4072,14944,1,0,0
46696,89734.00,507.00,507.08,1364,-4028,14840,1,0,0
46727,89734.00,507.00,507.08,1196,-4216,14820,1,0,0
46757,89734.00,507.00,507.08,1196,-4084,14840,1,0,0
46788,89734.00,507.00,507.08,1300,-4064,14836,1,0,0
46819,89734.00,507.00,507.08,1332,-4192,14832,1,0,0
46850,89734.00,507.00,507.08,1304,-4072,15016,1,0,0
46880,89734.00,507.00,507.08,1336,-4048,14720,1,0,0
46915,89735.00,506.91,507.08,1228,-4104,14940,1,0,0
46946,89735.00,506.91,507.08,1292,-4084,14868,1,0,0
46977,89735.00,506.91,507.08,1380,-4200,14796,1,0,0
47007,89734.00,507.00,507.07,1252,-4000,15016,1,0,0
47038,89734.00,507.00,507.07,1408,-4108,14792,1,0,0
47069,89734.00,507.00,507.07,1268,-4124,14900,1,0,0
47123,89733.00,507.09,507.07,1268,-4088,14708,1,0,0
47154,89733.00,507.09,507.07,1148,-4144,14808,1,0,0
47184,89733.00,507.09,507.07,1332,-4052,14836,1,0,0
47215,89734.00,507.00,507.07,1236,-4028,14848,1,0,0
47250,89733.00,507.09,507.07,1176,-4076,14912,1,0,0
47281,89733.00,507.09,507.07,1308,-4120,14728,1,0,0
47311,89733.00,507.09,507.07,1268,-4088,14788,1,0,0
47342,89734.00,507.00,507.07,1276,-3996,14912,1,0,0
47373,89734.00,507.00,507.07,1332,-4100,14756,1,0,0
47413,89734.00,507.00,507.07,1384,-4112,14832,1,0,0
47443,89734.00,507.00,507.07,1408,-4056,14836,1,0,0
47474,89733.00,507.09,507.07,1340,-4048,14988,1,0,0
47505,89733.00,507.09,507.07,1340,-4076,14772,1,0,0
47540,89733.00,507.09,507.07,1228,-4128,14812,1,0,0
47570,89734.00,507.00,507.07,1368,-4128,14764,1,0,0
47601,89734.00,507.00,507.07,1340,-3996,14964,1,0,0
47632,89734.00,507.00,507.07,1276,-4056,14736,1,0,0
47663,89734.00,507.00,507.07,1356,-4156,14748,1,0,0
47693,89733.00,507.09,507.07,1280,-4108,14776,1,0,0
47724,89734.00,507.00,507.07,1300,-4124,14872,1,0,0
47755,89734.00,507.00,507.07,1464,-4136,14664,1,0,0
47785,89734.00,507.00,507.07,1308,-4168,14864,1,0,0
47816,89734.00,507.00,507.07,1272,-4136,14796,1,0,0
47851,89734.00,507.00,507.07,1172,-4084,14896,1,0,0
47882,89734.00,507.00,507.07,1304,-4120,14784,1,0,0
47912,89734.00,507.00,507.07,1388,-4168,14752,1,0,0
47943,89733.00,507.09,507.07,1212,-4060,14916,1,0,0
47974,89733.00,507.09,507.07,1312,-4048,14840,1,0,0
48005,89733.00,507.09,507.07,1272,-3988,14704,1,0,0
48035,89733.00,507.09,507.07,1304,-4072,14892,1,0,0
48066,89733.00,507.09,507.07,1372,-4112,14840,1,0,0
48097,89734.00,507.00,507.07,1332,-4208,14740,1,0,0
48128,89734.00,507.00,507.07,1368,-4180,14816,1,0,0
48162,89734.00,507.00,507.07,1320,-4132,14744,1,0,0
48193,89734.00,507.00,507.07,1240,-4084,14972,1,0,0
48224,89734.00,507.00,507.07,1244,-4088,14876,1,0,0
48254,89734.00,507.00,507.07,1348,-4124,14848,1,0,0
48285,89734.00,507.00,507.07,1204,-4100,15004,1,0,0
48316,89734.00,507.00,507.07,1372,-4144,14828,1,0,0
48347,89734.00,507.00,507.07,1424,-4160,14688,1,0,0
48377,89734.00,507.00,507.07,1292,-4052,14952,1,0,0
48408,89734.00,507.00,507.07,1212,-4128,14876,1,0,0
48442,89734.00,507.00,507.07,1348,-4068,14936,1,0,0
48473,89735.00,506.91,507.07,1372,-4112,14884,1,0,0
48503,89736.00,506.82,507.07,1232,-4172,14920,1,0,0
48534,89735.00,506.91,507.07,1388,-4040,14888,1,0,0
48565,89735.00,506.91,507.07,1268,-4040,14888,1,0,0
48595,89735.00,506.91,507.07,1272,-4084,14728,1,0,0
48650,89735.00,506.91,507.07,1328,-4104,14808,1,0,0
48680,89735.00,506.91,507.07,1324,-4068,14772,1,0,0
48711,89735.00,506.91,507.07,1288,-4056,14896,1,0,0
48742,89735.00,506.91,507.07,1192,-3988,15032,1,0,0
48777,89736.00,506.82,507.07,1304,-4036,14980,1,0,0
48807,89736.00,506.82,507.07,1336,-4016,14912,1,0,0
48838,89736.00,506.82,507.07,1296,-4192,14832,1,0,0
48869,89736.00,506.82,507.07,1260,-4104,14832,1,0,0
48900,89736.00,506.82,507.07,1296,-4056,14788,1,0,0
48930,89737.00,506.72,507.07,1268,-4136,14712,1,0,0
48961,89737.00,506.72,507.07,1304,-4044,14800,1,0,0
48992,89738.00,506.63,507.07,1244,-4036,14860,1,0,0
49022,89738.00,506.63,507.06,1312,-4092,14804,1,0,0
49053,89737.00,506.72,507.06,1284,-4132,15036,1,0,0
49087,89737.00,506.72,507.06,1296,-4032,14892,1,0,0
49118,89736.00,506.82,507.06,1196,-4120,14976,1,0,0
49148,89736.00,506.82,507.06,1304,-4056,14828,1,0,0
49188,89736.00,506.82,507.06,1316,-4160,14728,1,0,0
49219,89736.00,506.82,507.06,1268,-4056,14960,1,0,0
49250,89737.00,506.72,507.06,1380,-4112,14912,1,0,0
49281,89736.00,506.82,507.06,1316,-4144,14692,1,0,0
49311,89736.00,506.82,507.06,1276,-4064,14908,1,0,0
49342,89737.00,506.72,507.06,1332,-4080,14884,1,0,0
49377,89737.00,506.72,507.06,1168,-4108,14912,1,0,0
49408,89738.00,506.63,507.06,1244,-4108,14888,1,0,0
49438,89738.00,506.63,507.06,1284,-4092,14620,1,0,0
49469,89738.00,506.63,507.06,1208,-4036,14952,1,0,0
49500,89738.00,506.63,507.06,1284,-4164,14940,1,0,0
49530,89738.00,506.63,507.05,1168,-4128,14820,1,0,0
49561,89738.00,506.63,507.05,1224,-4084,14952,1,0,0
49592,89738.00,506.63,507.05,1284,-4132,14784,1,0,0
49623,89737.00,506.72,507.05,1340,-4116,14716,1,0,0
49653,89737.00,506.72,507.05,1248,-4008,14900,1,0,0
49688,89737.00,506.72,507.05,1200,-4188,14848,1,0,0
49719,89737.00,506.72,507.05,1232,-3948,14896,1,0,0
49750,89737.00,506.72,507.05,1172,-4116,14732,1,0,0
49780,89737.00,506.72,507.05,1284,-4172,14796,1,0,0
49810,89737.00,506.72,507.05,1228,-4096,14956,1,0,0
49842,89737.00,506.72,507.05,1244,-4136,14856,1,0,0
49871,89738.00,506.63,507.05,1252,-4044,14732,1,0,0
49903,89737.00,506.72,507.05,1136,-4156,14908,1,0,0
49934,89738.00,506.63,507.04,1328,-4112,14724,1,0,0
49964,89737.00,506.72,507.04,1344,-4152,14708,1,0,0
49998,89737.00,506.72,507.04,1324,-4176,14796,1,0,0
50029,89737.00,506.72,507.04,1180,-4160,14764,1,0,0
50060,89737.00,506.72,507.04,1344,-4012,14968,1,0,0
50091,89737.00,506.72,507.04,1296,-4120,14812,1,0,0
50144,89737.00,506.72,507.04,1188,-4020,14808,1,0,0
50174,89737.00,506.72,507.04,1340,-4028,14820,1,0,0
50205,89737.00,506.72,507.04,1292,-4164,14808,1,0,0
50236,89737.00,506.72,507.04,1252,-3988,14820,1,0,0
50267,89738.00,506.63,507.04,1400,-4080,14728,1,0,0
50301,89737.00,506.72,507.04,1244,-4032,14900,1,0,0
50332,89737.00,506.72,507.04,1332,-4120,14632,1,0,0
50363,89737.00,506.72,507.04,1288,-4036,14800,1,0,0
50394,89737.00,506.72,507.04,1260,-3928,14808,1,0,0
50424,89737.00,506.72,507.03,1328,-4188,14668,1,0,0
50455,89737.00,506.72,507.03,1300,-4116,14916,1,0,0
50486,89738.00,506.63,507.03,1196,-4104,14908,1,0,0
50516,89738.00,506.63,507.03,1304,-4060,14568,1,0,0
50547,89738.00,506.63,507.03,1280,-4124,14872,1,0,0
50578,89738.00,506.63,507.03,1236,-4084,14988,1,0,0
50612,89738.00,506.63,507.03,1244,-4080,14868,1,0,0
50642,89738.00,506.63,507.03,1400,-4136,14632,1,0,0
50673,89738.00,506.63,507.03,1216,-4096,14820,1,0,0
50704,89738.00,506.63,507.03,1280,-4132,14900,1,0,0
50735,89738.00,506.63,507.03,1220,-4044,14692,1,0,0
50765,89738.00,506.63,507.02,1392,-4128,14776,1,0,0
50796,89738.00,506.63,507.02,1452,-4020,14944,1,0,0
50827,89739.00,506.54,507.02,1316,-4096,14848,1,0,0
50857,89739.00,506.54,507.02,1344,-4188,14848,1,0,0
50888,89739.00,506.54,507.02,1304,-4180,14824,1,0,0
50923,89739.00,506.54,507.02,1388,-4056,14920,1,0,0
50954,89739.00,506.54,507.02,1300,-4104,14992,1,0,0
50993,89739.00,506.54,507.02,1268,-4140,14804,1,0,0
51023,89738.00,506.63,507.02,1196,-4164,14748,1,0,0
51054,89738.00,506.63,507.01,1204,-4056,14952,1,0,0
51085,89738.00,506.63,507.01,1348,-4176,15008,1,0,0
51116,89737.00,506.72,507.01,1364,-4008,14796,1,0,0
51146,89737.00,506.72,507.01,1024,-4012,15016,1,0,0
51177,89737.00,506.72,507.01,1340,-4112,14868,1,0,0
51212,89737.00,506.72,507.01,4680,-2536,12740,1,0,0
51241,89737.00,506.72,507.01,1648,-3944,15188,1,0,0
51272,89737.00,506.72,507.01,1932,-4048,14360,1,0,0
51303,89737.00,506.72,507.01,1696,-4176,15004,1,0,0
51334,89737.00,506.72,507.01,1364,-4096,14736,1,0,0
51364,89737.00,506.72,507.01,1788,-3848,14592,1,0,0
51394,89737.00,506.72,507.01,1100,-3836,14604,1,0,0
51425,89737.00,506.72,507.01,636,-5096,15088,1,0,0
51456,89737.00,506.72,507.00,964,-3700,18280,1,0,0
51485,89737.00,506.72,507.00,44,-4084,18788,1,0,0
51520,89737.00,506.72,507.00,2492,-5108,14868,1,0,0
51550,89737.00,506.72,507.00,-40,-6724,15868,1,0,0
51580,89737.00,506.72,507.00,-512,-7940,13036,1,0,0
51611,89737.00,506.72,507.00,1332,-7292,13636,1,0,0
51664,89737.00,506.72,507.00,-120,-11028,11568,1,0,0
51695,89737.00,506.72,507.00,744,-10464,11588,1,0,0
51726,89737.00,506.72,507.00,468,-11276,12484,1,0,0
51757,89737.00,506.72,507.00,-56,-12192,10232,1,0,0
51787,89737.00,506.72,507.00,816,-11616,11396,1,0,0
51817,89736.00,506.82,507.00,148,-13348,10620,1,0,0
51852,89735.00,506.91,507.00,668,-12972,9136,1,0,0
51883,89735.00,506.91,507.00,1684,-12096,10360,1,0,0
51913,89735.00,506.91,507.00,1400,-12556,10040,1,0,0
51944,89735.00,506.91,507.00,1608,-12940,9456,1,0,0
51976,89735.00,506.91,507.00,1244,-14296,8280,1,0,0
52006,89735.00,506.91,507.00,2484,-13228,9280,1,0,0
52037,89735.00,506.91,507.00,2700,-14068,8468,1,0,0
52068,89735.00,506.91,507.00,3756,-11980,7136,1,0,0
52099,89736.00,506.82,506.99,4364,-12340,8472,1,0,0
52133,89736.00,506.82,506.99,4108,-12244,7284,1,0,0
52165,89736.00,506.82,506.99,4948,-11376,6308,1,0,0
52196,89737.00,506.72,506.99,5836,-12060,6364,1,0,0
52227,89737.00,506.72,506.99,5672,-13076,8212,1,0,0
52257,89737.00,506.72,506.99,4540,-13220,7744,1,0,0
52288,89737.00,506.72,506.99,5004,-12628,7704,1,0,0
52319,89737.00,506.72,506.99,5260,-13292,8920,1,0,0
52350,89737.00,506.72,506.99,5432,-12724,8252,1,0,0
52381,89737.00,506.72,506.99,5760,-12392,6744,1,0,0
52412,89737.00,506.72,506.99,5660,-12560,7520,1,0,0
52447,89737.00,506.72,506.99,6224,-12964,7516,1,0,0
52477,89737.00,506.72,506.99,5344,-13120,6400,1,0,0
52508,89737.00,506.72,506.99,6276,-12356,5512,1,0,0
52539,89737.00,506.72,506.98,5304,-12872,7596,1,0,0
52570,89737.00,506.72,506.98,6344,-13244,5972,1,0,0
52601,89738.00,506.63,506.98,4560,-12964,7184,1,0,0
52632,89738.00,506.63,506.98,6484,-12552,5816,1,0,0
52663,89738.00,506.63,506.98,6908,-12908,6592,1,0,0
52694,89738.00,506.63,506.98,6408,-13360,5836,1,0,0
52724,89738.00,506.63,506.98,7628,-12656,4964,1,0,0
52768,89738.00,506.63,506.98,7760,-12240,6248,1,0,0
52799,89738.00,506.63,506.98,7532,-12592,6248,1,0,0
52830,89738.00,506.63,506.98,7928,-12220,6800,1,0,0
52860,89738.00,506.63,506.98,7536,-12528,7656,1,0,0
52892,89738.00,506.63,506.97,7352,-13124,5980,1,0,0
52923,89738.00,506.63,506.97,7132,-12932,5060,1,0,0
52954,89738.00,506.63,506.97,7336,-12496,5368,1,0,0
52984,89738.00,506.63,506.97,7808,-12508,5920,1,0,0
53015,89739.00,506.54,506.97,8244,-12400,5680,1,0,0
53050,89739.00,506.54,506.97,8868,-11504,5688,1,0,0
53081,89739.00,506.54,506.97,9120,-11260,5256,1,0,0
53112,89739.00,506.54,506.97,9020,-11984,4580,1,0,0
53167,89739.00,506.54,506.96,8960,-12748,4932,1,0,0
53197,89739.00,506.54,506.96,9160,-12892,5892,1,0,0
53228,89739.00,506.54,506.96,8912,-12796,5180,1,0,0
53259,89738.00,506.54,506.96,8868,-12708,5392,1,0,0
53289,89738.00,506.63,506.96,8996,-12968,5640,1,0,0
53320,89739.00,506.54,506.96,9016,-12268,5892,1,0,0
53351,89738.00,506.63,506.96,9232,-11784,5252,1,0,0
53386,89738.00,506.63,506.96,9544,-10960,5568,1,0,0
53417,89738.00,506.63,506.96,9544,-11680,5848,1,0,0
53448,89739.00,506.54,506.95,9816,-10632,5072,1,0,0
53479,89738.00,506.63,506.95,10260,-10588,5912,1,0,0
53510,89739.00,506.63,506.95,10300,-11272,4932,1,0,0
53540,89739.00,506.54,506.95,11196,-10328,4812,1,0,0
53571,89739.00,506.54,506.95,11088,-10624,5200,1,0,0
53603,89739.00,506.54,506.95,11364,-10104,4456,1,0,0
53634,89739.00,506.54,506.95,11328,-10272,4400,1,0,0
53664,89739.00,506.54,506.95,10948,-10740,4968,1,0,0
53699,89739.00,506.54,506.94,11928,-9900,3572,1,0,0
53730,89739.00,506.54,506.94,11348,-9632,3716,1,0,0
53761,89738.00,506.54,506.94,11924,-9108,3788,1,0,0
53791,89738.00,506.63,506.94,11920,-9668,4436,1,0,0
53822,89737.00,506.72,506.94,12184,-8688,4092,1,0,0
53854,89737.00,506.72,506.94,12516,-8460,4044,1,0,0
53884,89737.00,506.72,506.94,12552,-9088,3840,1,0,0
53915,89736.00,506.82,506.94,12716,-9152,4196,1,0,0
53946,89737.00,506.72,506.94,12580,-9204,3980,1,0,0
53981,89737.00,506.72,506.94,12816,-8748,3680,1,0,0
54011,89737.00,506.72,506.94,13100,-8296,4004,1,0,0
54042,89737.00,506.72,506.93,12824,-9028,4196,1,0,0
54073,89737.00,506.72,506.93,12832,-9120,4284,1,0,0
54104,89737.00,506.72,506.93,13432,-7940,3420,1,0,0
54135,89737.00,506.72,506.93,13552,-7508,4300,1,0,0
54166,89737.00,506.72,506.93,13800,-7592,3944,1,0,0
54197,89737.00,506.72,506.93,13568,-8420,4012,1,0,0
54227,89737.00,506.72,506.93,13864,-7480,4284,1,0,0
54258,89737.00,506.72,506.93,14332,-6424,3024,1,0,0
54293,89737.00,506.72,506.93,14024,-6920,2844,1,0,0
54324,89737.00,506.72,506.93,14488,-6300,4324,1,0,0
54354,89737.00,506.72,506.93,14520,-5616,3428,1,0,0
54385,89737.00,506.72,506.93,14476,-5188,2792,1,0,0
54417,89737.00,506.72,506.93,14944,-4828,4248,1,0,0
54448,89737.00,506.72,506.93,14948,-4192,4940,1,0,0
54478,89736.00,506.72,506.93,15164,-3744,3280,1,0,0
54509,89736.00,506.82,506.93,15368,-3508,3604,1,0,0
54540,89735.00,506.91,506.93,15296,-3560,4072,1,0,0
54580,89736.00,506.82,506.92,14960,-3720,3008,1,0,0
54615,89736.00,506.82,506.92,15228,-2368,3224,1,0,0
54669,89735.00,506.91,506.92,15128,-2356,4176,1,0,0
54700,89735.00,506.91,506.92,14472,-2380,3408,1,0,0
54730,89735.00,506.91,506.92,14864,-180,3796,1,0,0
54761,89735.00,506.91,506.92,15336,460,3956,1,0,0
54792,89736.00,506.82,506.92,14668,784,3132,1,0,0
54822,89735.00,506.91,506.92,14856,2544,4740,1,0,0
54853,89735.00,506.91,506.92,15660,3588,844,1,0,0
54884,89735.00,506.91,506.92,14812,2992,3928,1,0,0
54919,89736.00,506.82,506.92,15500,4328,2616,1,0,0
54949,89736.00,506.82,506.92,14464,2952,2404,1,0,0
54980,89736.00,506.82,506.92,13464,3124,4200,1,0,0
55011,89736.00,506.82,506.92,13940,5628,4308,1,0,0
55042,89736.00,506.82,506.92,13600,6944,3980,1,0,0
55072,89736.00,506.82,506.92,13876,8180,2248,1,0,0
55103,89737.00,506.72,506.92,13856,8820,3684,1,0,0
55135,89737.00,506.72,506.92,13156,7832,1616,1,0,0
55165,89737.00,506.72,506.92,12804,8808,1108,1,0,0
55196,89738.00,506.72,506.92,11300,11152,4680,1,0,0
55230,89738.00,506.63,506.92,13468,9980,472,1,0,0
55261,89738.00,506.63,506.92,12104,11784,2596,1,0,0
55292,89739.00,506.54,506.92,12584,12416,472,1,0,0
55323,89739.00,506.54,506.91,15948,11780,-2048,1,0,0
55354,89739.00,506.54,506.91,9588,10876,4320,1,0,0
55385,89738.00,506.63,506.91,11764,12208,896,1,0,0
55415,89738.00,506.63,506.91,12160,13064,172,1,0,0
55446,89738.00,506.63,506.91,11040,12616,1256,1,0,0
55477,89737.00,506.72,506.91,11004,12084,1236,1,0,0
55507,89737.00,506.72,506.91,9120,11944,2428,1,0,0
55542,89737.00,506.72,506.91,11104,12060,-568,1,0,0
55573,89737.00,506.72,506.91,7200,13228,3616,1,0,0
55604,89737.00,506.72,506.91,9168,14120,1956,1,0,0
55634,89737.00,506.72,506.91,6896,12232,2792,1,0,0
55665,89737.00,506.72,506.91,3344,11644,6928,1,0,0
55696,89737.00,506.72,506.91,4340,12848,5792,1,0,0
55727,89738.00,506.63,506.90,10496,14328,-1384,1,0,0
55757,89738.00,506.63,506.90,8968,13604,92,1,0,0
55788,89739.00,506.54,506.90,8788,13884,996,1,0,0
55819,89739.00,506.54,506.90,8932,14276,-628,1,0,0
55854,89738.00,506.63,506.90,8772,15404,-704,1,0,0
55884,89738.00,506.63,506.90,7432,10348,-4912,1,0,0
55915,89738.00,506.63,506.90,5932,14372,3284,1,0,0
55946,89738.00,506.63,506.90,7172,15536,-84,1,0,0
55976,89738.00,506.63,506.90,9012,15276,-3068,1,0,0
56007,89738.00,506.63,506.90,7040,15056,-1692,1,0,0
56038,89739.00,506.54,506.89,7296,16936,116,1,0,0
56069,89738.00,506.63,506.89,5948,14664,-4700,1,0,0
56099,89738.00,506.63,506.89,7108,17528,-1408,1,0,0
56154,89739.00,506.54,506.89,5576,15952,-3588,1,0,0
56188,89739.00,506.54,506.89,5624,15668,-4000,1,0,0
56219,89738.00,506.63,506.89,4704,14340,-3068,1,0,0
56250,89738.00,506.63,506.89,3952,15124,-4824,1,0,0
56281,89738.00,506.63,506.89,4112,15188,-5132,1,0,0
56311,89738.00,506.63,506.89,2652,13864,-4936,1,0,0
56342,89738.00,506.63,506.89,2600,15380,-5608,1,0,0
56382,89738.00,506.63,506.88,1660,15348,-6248,1,0,0
56413,89738.00,506.63,506.88,944,14876,-5640,1,0,0
56443,89738.00,506.63,506.88,-120,14880,-5752,1,0,0
56478,89737.00,506.72,506.88,-1584,16288,-5852,1,0,0
56509,89737.00,506.72,506.88,-1756,16744,-6012,1,0,0
56540,89738.00,506.63,506.88,-2988,16360,-6280,1,0,0
56570,89738.00,506.63,506.88,-2684,17596,-5168,1,0,0
56601,89738.00,506.63,506.88,-4604,16408,-4192,1,0,0
56632,89739.00,506.54,506.88,-4172,17740,-5660,1,0,0
56663,89739.00,506.54,506.88,-4524,17068,-6228,1,0,0
56693,89739.00,506.54,506.88,-4968,17700,-5376,1,0,0
56724,89739.00,506.54,506.87,-5768,17796,-5956,1,0,0
56756,89740.00,506.44,506.87,-5248,20588,-5468,1,0,0
56790,89740.00,506.44,506.87,-6104,22904,-4688,1,0,0
56821,89740.00,506.44,506.87,-6456,21040,-7688,1,0,0
56852,89740.00,506.44,506.87,-6228,19720,-6188,1,0,0
56883,89740.00,506.44,506.87,-6024,20148,-4540,1,0,0
56913,89740.00,506.44,506.87,-5440,22248,-3672,1,0,0
56944,89740.00,506.44,506.86,-4668,23636,-4052,1,0,0
56975,89739.00,506.54,506.86,-3628,22448,-2480,1,0,0
57006,89739.00,506.54,506.86,-3400,20492,-340,1,0,0
57036,89739.00,506.54,506.86,-3352,18280,-92,1,0,0
57071,89739.00,506.54,506.86,5876,12612,-14032,1,0,0
57102,89738.00,506.63,506.86,5152,12512,-808,1,0,0
57133,89738.00,506.63,506.86,7928,17184,10392,1,0,0
57163,89738.00,506.63,506.86,14312,10900,-6584,1,0,0
57194,89737.00,506.72,506.86,18396,16964,-1532,1,0,0
57225,89737.00,506.72,506.86,4292,1628,-17292,1,0,0
57255,89736.00,506.82,506.86,8672,-6888,-8872,1,0,0
57286,89735.00,506.91,506.86,12380,-1996,9212,1,0,0
57317,89735.00,506.91,506.86,12972,-5860,4256,1,0,0
57348,89735.00,506.91,506.86,13176,-6000,12116,1,0,0
57382,89735.00,506.91,506.86,15148,-1472,6192,1,0,0
57413,89735.00,506.91,506.86,14508,2260,4748,1,0,0
57444,89735.00,506.91,506.86,17108,6144,6160,1,0,0
57475,89734.00,507.00,506.86,16588,8684,5144,1,0,0
57505,89733.00,507.09,506.86,16152,7128,3108,1,0,0
57536,89733.00,507.09,506.86,15152,6012,4536,1,0,0
57567,89732.00,507.19,506.86,15032,5944,2084,1,0,0
57597,89732.00,507.19,506.86,11848,2648,1904,1,0,0
57652,89732.00,507.19,506.86,14716,5348,348,1,0,0
57682,89732.00,507.19,506.86,14812,6528,972,1,0,0
57717,89732.00,507.19,506.86,14920,8248,-768,1,0,0
57748,89732.00,507.19,506.87,9200,4868,-1208,1,0,0
57779,89732.00,507.19,506.87,12724,8580,3424,1,0,0
57809,89732.00,507.19,506.87,13664,14120,3056,1,0,0
57840,89732.00,507.19,506.87,17216,20824,3704,1,0,0
57871,89733.00,507.09,506.87,13360,18152,92,1,0,0
57902,89734.00,507.00,506.87,15048,13308,-3336,1,0,0
57932,89734.00,507.00,506.87,2896,14896,14708,1,0,0
57963,89734.00,507.00,506.87,10288,10052,-1332,1,0,0
57994,89734.00,507.00,506.87,16124,2956,5148,1,0,0
58029,89734.00,507.00,506.87,17256,4052,3412,1,0,0
58059,89734.00,507.00,506.87,15892,6868,1520,1,0,0
58090,89734.00,507.00,506.87,15876,6392,1736,1,0,0
58121,89733.00,507.09,506.87,15720,10448,820,1,0,0
58151,89733.00,507.09,506.88,14128,8988,-1208,1,0,0
58190,89733.00,507.09,506.88,13040,6560,-3548,1,0,0
58221,89733.00,507.09,506.88,10812,5588,-6812,1,0,0
58253,89733.00,507.09,506.88,10104,3380,-3932,1,0,0
58284,89733.00,507.09,506.88,9740,1144,-3520,1,0,0
58317,89732.00,507.19,506.88,11040,2928,-3592,1,0,0
58348,89732.00,507.19,506.88,9720,3116,-4648,1,0,0
58379,89731.00,507.28,506.88,8320,-1540,-1552,1,0,0
58409,89731.00,507.28,506.88,6164,-4848,-260,1,0,0
58440,89731.00,507.28,506.89,5008,-10120,6600,1,0,0
58471,89730.00,507.37,506.89,8008,-7228,8168,1,0,0
58502,89731.00,507.28,506.89,8136,-8524,10160,1,0,0
58532,89730.00,507.37,506.89,5016,-9040,13400,1,0,0
58564,89730.00,507.37,506.89,6420,-8004,14116,1,0,0
58595,89731.00,507.28,506.89,-6568,-8312,26172,1,0,0
58629,89731.00,507.28,506.90,6992,-8004,14736,1,0,0
58659,89731.00,507.28,506.90,8068,-6552,11028,1,0,0
58690,89732.00,507.19,506.90,7620,-5148,13204,1,0,0
58721,89732.00,507.19,506.90,4732,-1340,15032,1,0,0
58752,89733.00,507.09,506.90,2628,-5624,14992,1,0,0
58782,89733.00,507.09,506.90,764,-3524,17872,1,0,0
58813,89734.00,507.00,506.90,68,-3124,18888,1,0,0
58844,89734.00,507.00,506.90,-4452,-7484,17852,1,0,0
58874,89735.00,506.91,506.90,-5336,-5744,22636,1,0,0
58905,89735.00,506.91,506.90,21920,-12216,3660,1,0,0
58940,89735.00,506.91,506.90,-4952,-8528,6996,1,0,0
58971,89736.00,506.82,506.90,-5276,-5600,12184,1,0,0
59001,89736.00,506.82,506.90,-2388,-3136,15560,1,0,0
59032,89736.00,506.82,506.90,1344,-4156,13072,1,0,0
59063,89736.00,506.82,506.90,1416,-5604,11804,1,0,0
59094,89736.00,506.82,506.90,728,-4012,13356,1,0,0
59148,89737.00,506.72,506.90,-464,-2596,16720,1,0,0
59179,89737.00,506.72,506.90,224,-2816,17508,1,0,0
59209,89737.00,506.72,506.90,-4500,-7232,15764,1,0,0
59244,89737.00,506.72,506.90,-816,-5564,15044,1,0,0
59275,89737.00,506.72,506.90,7148,-5480,7708,1,0,0
59305,89738.00,506.63,506.90,-3752,-3776,15232,1,0,0
59336,89738.00,506.63,506.89,668,-2824,14488,1,0,0
59367,89738.00,506.63,506.89,1160,-4176,14300,1,0,0
59398,89738.00,506.63,506.89,-1408,-5200,15668,1,0,0
59428,89738.00,506.63,506.89,1688,-2204,14844,1,0,0
59459,89738.00,506.63,506.89,760,-3976,14464,1,0,0
59490,89737.00,506.72,506.89,1064,-4488,13764,1,0,0
59521,89737.00,506.72,506.89,104,-4144,15268,1,0,0
59554,89737.00,506.72,506.89,644,-4180,14880,1,0,0
59585,89737.00,506.72,506.89,-440,-4424,15592,1,0,0
59616,89737.00,506.72,506.89,2468,-3676,14944,1,0,0
59646,89737.00,506.72,506.89,200,-4648,14868,1,0,0
59677,89737.00,506.72,506.89,1040,-3960,14708,1,0,0
59708,89737.00,506.72,506.89,984,-4224,14860,1,0,0
59739,89737.00,506.72,506.89,656,-4204,14880,1,0,0
59769,89737.00,506.72,506.88,668,-4248,15008,1,0,0
59800,89738.00,506.63,506.88,908,-4288,14872,1,0,0
59831,89738.00,506.63,506.88,648,-4264,14888,1,0,0
59866,89738.00,506.63,506.88,844,-4196,14868,1,0,0
59896,89738.00,506.63,506.88,860,-4220,14988,1,0,0
59927,89738.00,506.63,506.88,852,-4176,14616,1,0,0
59966,89738.00,506.63,506.88,800,-4228,14920,1,0,0
59997,89738.00,506.63,506.88,1068,-4016,14624,1,0,0
60027,89739.00,506.54,506.88,964,-4140,14624,1,0,0
60058,89739.00,506.54,506.88,892,-4372,14840,1,0,0
60089,89739.00,506.54,506.87,832,-4268,14988,1,0,0
60120,89739.00,506.54,506.87,876,-4200,14788,1,0,0
60150,89739.00,506.54,506.87,844,-4308,14780,1,0,0
60185,89740.00,506.44,506.87,776,-4192,14764,1,0,0
60216,89740.00,506.44,506.87,728,-4164,14948,1,0,0
60247,89740.00,506.44,506.87,824,-4088,14896,1,0,0
60277,89740.00,506.44,506.86,852,-4108,14848,1,0,0
60308,89739.00,506.54,506.86,784,-4260,14808,1,0,0
60338,89739.00,506.54,506.86,840,-4168,14912,1,0,0
60368,89739.00,506.54,506.86,876,-4268,14720,1,0,0
60399,89739.00,506.54,506.86,804,-4212,14860,1,0,0
60430,89739.00,506.54,506.86,928,-4156,14932,1,0,0
60465,89739.00,506.54,506.86,716,-4232,14936,1,0,0
60495,89739.00,506.54,506.86,880,-4304,14872,1,0,0
60526,89739.00,506.54,506.85,900,-4216,14800,1,0,0
60557,89739.00,506.54,506.85,764,-4268,14872,1,0,0
60588,89739.00,506.54,506.85,776,-4212,14776,1,0,0
60641,89739.00,506.54,506.85,824,-4280,14876,1,0,0
60672,89739.00,506.54,506.85,912,-4084,14808,1,0,0
60702,89739.00,506.54,506.85,860,-4256,14804,1,0,0
60733,89739.00,506.54,506.85,812,-4228,14804,1,0,0
60764,89739.00,506.54,506.84,816,-4252,14804,1,0,0
60798,89739.00,506.54,506.84,808,-4264,14820,1,0,0
60829,89739.00,506.54,506.84,796,-4256,14736,1,0,0
60860,89739.00,506.54,506.84,788,-4328,14664,1,0,0
60891,89740.00,506.44,506.84,764,-4172,14984,1,0,0
60921,89740.00,506.44,506.84,848,-4232,14856,1,0,0
60952,89740.00,506.44,506.84,916,-4284,14636,1,0,0
60983,89740.00,506.44,506.83,668,-4576,14828,1,0,0
61012,89741.00,506.35,506.83,1004,-4064,15068,1,0,0
61043,89740.00,506.44,506.83,880,-4100,14928,1,0,0
61074,89740.00,506.44,506.83,416,-4468,14888,1,0,0
61109,89740.00,506.44,506.83,952,-4104,14948,1,0,0
61139,89740.00,506.44,506.83,764,-4208,15004,1,0,0
61169,89740.00,506.44,506.82,776,-4236,14736,1,0,0
61200,89740.00,506.44,506.82,936,-4156,15020,1,0,0
61231,89740.00,506.44,506.82,816,-4320,14928,1,0,0
61260,89740.00,506.44,506.82,824,-4284,14780,1,0,0
61291,89740.00,506.44,506.82,864,-4188,14756,1,0,0
61322,89740.00,506.44,506.82,828,-4336,14868,1,0,0
61352,89740.00,506.44,506.81,856,-4132,14820,1,0,0
61382,89741.00,506.35,506.81,836,-4316,14884,1,0,0
61571,89741.00,506.35,506.81,732,-4312,14772,1,0,0
61603,89742.00,506.26,506.81,896,-4252,14728,1,0,0
61636,89742.00,506.26,506.81,828,-4272,14996,1,0,0
61669,89742.00,506.26,506.80,828,-4248,14860,1,0,0
61702,89742.00,506.26,506.80,772,-4112,14844,1,0,0
61734,89741.00,506.35,506.80,768,-4256,14924,1,0,0
61767,89741.00,506.35,506.80,904,-4172,14876,1,0,0
61800,89741.00,506.35,506.79,892,-4196,14876,1,0,0
61833,89741.00,506.35,506.79,896,-4160,14924,1,0,0
61865,89742.00,506.26,506.79,900,-4296,14640,1,0,0
61912,89742.00,506.26,506.79,812,-4260,14788,1,0,0
61944,89741.00,506.35,506.78,792,-4208,14820,1,0,0
61978,89741.00,506.35,506.78,804,-4120,14824,1,0,0
62011,89741.00,506.35,506.78,824,-4224,15016,1,0,0
62045,89741.00,506.35,506.78,780,-4156,14984,1,0,0
62077,89740.00,506.44,506.78,784,-4252,14964,1,0,0
62111,89740.00,506.44,506.78,868,-4252,14900,1,0,0
62144,89740.00,506.44,506.77,836,-4296,14960,1,0,0
62178,89740.00,506.44,506.77,820,-4264,14920,1,0,0
62211,89740.00,506.44,506.77,744,-4168,14920,1,0,0
62247,89740.00,506.44,506.77,828,-4252,14844,1,0,0
62281,89740.00,506.44,506.77,888,-4328,14724,1,0,0
62339,89740.00,506.44,506.77,876,-4256,14812,1,0,0
62371,89740.00,506.44,506.76,824,-4220,14740,1,0,0
62405,89740.00,506.44,506.76,1020,-4280,14812,1,0,0
62438,89740.00,506.44,506.76,916,-4264,14852,1,0,0
62472,89740.00,506.44,506.76,896,-4180,14736,1,0,0
62504,89740.00,506.44,506.76,816,-4176,14832,1,0,0
62538,89740.00,506.44,506.76,844,-4268,14900,1,0,0
62575,89741.00,506.35,506.75,860,-4192,14896,1,0,0
62608,89741.00,506.35,506.75,896,-4224,14836,1,0,0
62642,89741.00,506.35,506.75,960,-4248,14720,1,0,0
62674,89740.00,506.44,506.75,840,-4212,14816,1,0,0
62708,89740.00,506.44,506.75,800,-4200,14752,1,0,0
62741,89740.00,506.44,506.75,800,-4172,14732,1,0,0
62775,89741.00,506.35,506.74,892,-4272,14852,1,0,0
62808,89741.00,506.35,506.74,820,-4288,14796,1,0,0
62840,89741.00,506.35,506.74,860,-4200,14732,1,0,0
62874,89741.00,506.35,506.74,940,-4244,14680,1,0,0
62911,89742.00,506.26,506.74,816,-4212,15032,1,0,0
62945,89742.00,506.26,506.73,844,-4252,14860,1,0,0
62978,89742.00,506.26,506.73,632,-5884,15636,1,0,0
63010,89742.00,506.26,506.73,1308,-1884,11012,1,0,0
63044,89742.00,506.26,506.73,20,-3776,19384,1,0,0
63077,89742.00,506.26,506.72,1592,-4268,14204,1,0,0
63111,89743.00,506.16,506.72,-1532,-4048,16516,1,0,0
63143,89743.00,506.16,506.72,-1080,-3388,14856,1,0,0
63177,89743.00,506.16,506.72,-412,-2616,17976,1,0,0
63210,89743.00,506.16,506.71,-808,-3928,15520,1,0,0
63248,89743.00,506.16,506.71,2088,-1984,15320,1,0,0
63281,89743.00,506.16,506.71,-2812,-1840,16076,1,0,0
63314,89743.00,506.16,506.70,728,-976,11880,1,0,0
63347,89743.00,506.16,506.70,-3812,-1620,18148,1,0,0
63380,89742.00,506.26,506.70,140,-944,13548,1,0,0
63414,89742.00,506.26,506.70,300,-5368,12168,1,0,0
63447,89742.00,506.26,506.69,6200,-3688,11424,1,0,0
63480,89743.00,506.16,506.69,-2012,-5732,15572,1,0,0
63513,89743.00,506.16,506.69,2272,-5540,15268,1,0,0
63547,89742.00,506.26,506.69,280,-3872,14668,1,0,0
63584,89742.00,506.26,506.68,-828,-4320,14672,1,0,0
63617,89742.00,506.26,506.68,-3020,-5548,16348,1,0,0
63650,89742.00,506.26,506.68,-352,-2064,15372,1,0,0
63683,89742.00,506.26,506.68,-448,-5320,18536,1,0,0
63717,89742.00,506.26,506.67,1232,-2604,13592,1,0,0
63750,89742.00,506.26,506.67,652,-3140,13664,1,0,0
63783,89742.00,506.26,506.67,236,-3520,16836,1,0,0
63816,89742.00,506.26,506.67,-200,-4984,14476,1,0,0
63858,89741.00,506.35,506.67,-712,-4356,13284,1,0,0
63895,89741.00,506.35,506.66,2340,-7348,15236,1,0,0
63952,89741.00,506.35,506.66,-1364,-4460,16752,1,0,0
63986,89741.00,506.35,506.66,-13600,-6024,15444,1,0,0
64019,89741.00,506.35,506.66,336,-6352,15796,1,0,0
64053,89741.00,506.35,506.66,-892,-10132,9620,1,0,0
64086,89741.00,506.35,506.66,1072,-5636,14888,1,0,0
64119,89741.00,506.35,506.65,1608,-4276,14844,1,0,0
64152,89742.00,506.26,506.65,3068,-4684,12800,1,0,0
64186,89742.00,506.26,506.65,1868,-3328,14944,1,0,0
64219,89742.00,506.26,506.65,1556,-4672,16404,1,0,0
64256,89742.00,506.26,506.64,4544,-3624,10124,1,0,0
64289,89742.00,506.26,506.64,-640,-7148,11496,1,0,0
64322,89742.00,506.26,506.64,-6872,-2324,24152,1,0,0
64356,89742.00,506.26,506.64,-1072,-6116,16784,1,0,0
64389,89741.00,506.35,506.64,2856,-5580,13548,1,0,0
64422,89740.00,506.44,506.64,828,-4148,16264,1,0,0
64455,89741.00,506.35,506.63,1652,-4948,14024,1,0,0
64489,89741.00,506.35,506.63,1672,-6524,12404,1,0,0
64522,89741.00,506.35,506.63,1756,-5444,13540,1,0,0
64556,89741.00,506.35,506.63,136,-5728,14796,1,0,0
64592,89741.00,506.35,506.63,-1148,-7064,15236,1,0,0
64625,89741.00,506.35,506.63,-2188,-4792,15832,1,0,0
64659,89741.00,506.35,506.62,3948,-3388,7696,1,0,0
64692,89741.00,506.35,506.62,3128,-4240,14708,1,0,0
64726,89741.00,506.35,506.62,-3032,-4380,13740,1,0,0
64758,89741.00,506.35,506.62,-948,-3468,13112,1,0,0
64792,89741.00,506.35,506.62,1568,-4820,13788,1,0,0
64825,89741.00,506.35,506.62,-3860,-3864,22956,1,0,0
64859,89742.00,506.26,506.61,848,-4964,13784,1,0,0
64896,89742.00,506.26,506.61,404,-4252,14196,1,0,0
64928,89742.00,506.26,506.61,504,-4624,13156,1,0,0
64962,89741.00,506.35,506.61,-484,-5776,14456,1,0,0
64995,89742.00,506.26,506.61,-832,-5376,15260,1,0,0
65028,89742.00,506.26,506.61,-1036,-5464,15480,1,0,0
65061,89742.00,506.26,506.60,-604,-4800,14600,1,0,0
65094,89742.00,506.26,506.60,-1052,-5168,14608,1,0,0
65128,89742.00,506.26,506.60,-488,-5072,14544,1,0,0
65161,89742.00,506.26,506.60,-288,-4064,15188,1,0,0
65195,89743.00,506.16,506.59,-520,-5256,14676,1,0,0
65231,89743.00,506.16,506.59,376,-5200,14668,1,0,0
65264,89743.00,506.16,506.59,1112,-3660,15064,1,0,0
65298,89742.00,506.26,506.59,700,-5256,14680,1,0,0
65331,89742.00,506.26,506.59,828,-4140,15076,1,0,0
65364,89742.00,506.26,506.58,1044,-5548,14828,1,0,0
65397,89742.00,506.26,506.58,-1172,-3420,18300,1,0,0
65430,89743.00,506.16,506.58,952,-5972,13628,1,0,0
65464,89743.00,506.16,506.58,1308,-4412,15036,1,0,0
65497,89743.00,506.16,506.57,1344,-5108,14044,1,0,0
65554,89743.00,506.16,506.57,796,-4592,14344,1,0,0
65591,89743.00,506.16,506.57,616,-4532,14696,1,0,0
65625,89743.00,506.16,506.57,1068,-4268,14732,1,0,0
65657,89743.00,506.16,506.57,2116,-5280,13744,1,0,0
65691,89743.00,506.16,506.56,1208,-3912,14236,1,0,0
65724,89743.00,506.16,506.56,1540,-4692,14700,1,0,0
65757,89743.00,506.16,506.56,2940,-3160,13644,1,0,0
65800,89743.00,506.16,506.56,776,-5024,18588,1,0,0
65832,89743.00,506.16,506.55,956,-3600,17724,1,0,0
65865,89743.00,506.16,506.55,-1484,-7824,15704,1,0,0
65903,89744.00,506.07,506.55,1896,-4700,19024,1,0,0
65936,89744.00,506.07,506.55,628,-6920,10240,1,0,0
65969,89744.00,506.07,506.54,-1780,-4856,20592,1,0,0
66002,89744.00,506.07,506.54,-1624,-6164,13460,1,0,0
66035,89744.00,506.07,506.54,-592,-5552,15272,1,0,0
66069,89743.00,506.16,506.53,712,-5392,13776,1,0,0
66102,89743.00,506.16,506.53,-316,-5812,13212,1,0,0
66135,89744.00,506.07,506.53,-6712,-6444,18164,1,0,0
66168,89744.00,506.07,506.53,4392,-5084,12120,1,0,0
66201,89744.00,506.07,506.52,3276,-5176,16524,1,0,0
66238,89744.00,506.07,506.52,-540,-5700,14000,1,0,0
66272,89744.00,506.07,506.52,756,-5788,13936,1,0,0
66305,89744.00,506.07,506.52,128,-5572,14296,1,0,0
66338,89744.00,506.07,506.51,168,-5556,14100,1,0,0
66371,89744.00,506.07,506.51,496,-5108,16052,1,0,0
66404,89744.00,506.07,506.51,160,-5756,13928,1,0,0
66438,89743.00,506.16,506.51,-392,-5740,13400,1,0,0
66470,89743.00,506.16,506.50,1172,-5292,14616,1,0,0
66504,89743.00,506.16,506.50,1188,-4900,14884,1,0,0
66537,89743.00,506.16,506.50,-516,-5476,15244,1,0,0
66574,89743.00,506.16,506.50,-596,-5784,13728,1,0,0
66607,89743.00,506.16,506.49,396,-5404,15260,1,0,0
66640,89743.00,506.16,506.49,536,-5244,14624,1,0,0
66673,89743.00,506.16,506.49,232,-5576,14764,1,0,0
66706,89744.00,506.07,506.49,672,-5188,14064,1,0,0
66740,89744.00,506.07,506.49,764,-5232,14224,1,0,0
66772,89743.00,506.16,506.48,1172,-5312,14384,1,0,0
66806,89743.00,506.16,506.48,-244,-4908,14792,1,0,0
66839,89743.00,506.16,506.48,1148,-5828,14240,1,0,0
66872,89743.00,506.16,506.48,560,-5688,14428,1,0,0
66909,89742.00,506.26,506.48,2120,-4892,12476,1,0,0
66942,89742.00,506.26,506.47,-1076,-6452,16780,1,0,0
66975,89742.00,506.26,506.47,2252,-4796,14124,1,0,0
67009,89743.00,506.16,506.47,1508,-5124,12412,1,0,0
67042,89743.00,506.16,506.47,3796,-6112,10596,1,0,0
67075,89743.00,506.16,506.47,312,-5340,17124,1,0,0
67132,89742.00,506.26,506.47,304,-5940,13944,1,0,0
67166,89742.00,506.26,506.46,3600,-5800,14848,1,0,0
67198,89742.00,506.26,506.46,-1184,-5820,14148,1,0,0
67235,89742.00,506.26,506.46,-768,-5632,14920,1,0,0
67269,89741.00,506.35,506.46,624,-5432,14276,1,0,0
67302,89742.00,506.26,506.46,-104,-4984,13360,1,0,0
67335,89742.00,506.26,506.46,-488,-5320,14392,1,0,0
67368,89742.00,506.26,506.46,3848,-9428,16340,1,0,0
67401,89742.00,506.26,506.46,-1824,-6328,12664,1,0,0
67435,89742.00,506.26,506.46,-900,-3060,18244,1,0,0
67468,89742.00,506.26,506.45,-2644,-6868,10672,1,0,0
67501,89742.00,506.26,506.45,1596,-5712,13196,1,0,0
67534,89742.00,506.26,506.45,936,-5420,15372,1,0,0
67571,89742.00,506.26,506.45,-404,-6488,14092,1,0,0
67604,89742.00,506.26,506.45,-1648,-6512,14720,1,0,0
67638,89742.00,506.26,506.45,644,-5312,14348,1,0,0
67671,89741.00,506.35,506.45,-1668,-6680,15128,1,0,0
67713,89741.00,506.35,506.45,-440,-6276,14084,1,0,0
67746,89741.00,506.35,506.45,-304,-5772,14452,1,0,0
67779,89741.00,506.35,506.45,-264,-5600,15460,1,0,0
67812,89741.00,506.35,506.45,-296,-6252,15056,1,0,0
67846,89742.00,506.26,506.44,1296,-6828,11680,1,0,0
67878,89742.00,506.26,506.44,-2012,-5104,15700,1,0,0
67915,89742.00,506.26,506.44,1316,-6664,13836,1,0,0
67949,89743.00,506.16,506.44,392,-6788,13020,1,0,0
67982,89743.00,506.16,506.44,-448,-6316,13836,1,0,0
68016,89743.00,506.16,506.44,532,-7312,13228,1,0,0
68048,89743.00,506.16,506.44,132,-6780,13164,1,0,0
68081,89743.00,506.16,506.43,-600,-6164,13532,1,0,0
68115,89743.00,506.16,506.43,1704,-6596,14876,1,0,0
68148,89742.00,506.26,506.43,-1124,-6532,16120,1,0,0
68182,89742.00,506.26,506.43,-1040,-6676,14548,1,0,0
68218,89742.00,506.26,506.43,4724,-5932,12904,1,0,0
68251,89742.00,506.26,506.43,3752,-5644,14384,1,0,0
68284,89742.00,506.26,506.43,336,-7120,14488,1,0,0
68318,89741.00,506.35,506.43,980,-6956,19092,1,0,0
68350,89741.00,506.35,506.43,2196,-6076,13336,1,0,0
68384,89741.00,506.35,506.43,744,-7168,12844,1,0,0
68417,89742.00,506.26,506.43,1552,-6496,13972,1,0,0
68450,89741.00,506.35,506.42,836,-6728,13912,1,0,0
68484,89742.00,506.26,506.42,520,-6568,14040,1,0,0
68516,89742.00,506.26,506.42,-1356,-6488,15568,1,0,0
68553,89741.00,506.35,506.42,1876,-6688,13360,1,0,0
68587,89741.00,506.35,506.42,-136,-5716,14008,1,0,0
68620,89741.00,506.35,506.42,992,-7588,12792,1,0,0
68653,89741.00,506.35,506.42,1460,-6080,13796,1,0,0
68686,89741.00,506.35,506.42,1440,-5896,13748,1,0,0
68743,89741.00,506.35,506.42,552,-7008,10536,1,0,0
68776,89742.00,506.26,506.42,264,-6864,12492,1,0,0
68809,89742.00,506.26,506.42,1696,-6348,12168,1,0,0
68842,89742.00,506.26,506.42,3516,-6860,12604,1,0,0
68876,89742.00,506.26,506.42,2092,-7476,13440,1,0,0
68913,89742.00,506.26,506.42,4864,-6028,11872,1,0,0
68945,89742.00,506.26,506.42,3512,-7548,11412,1,0,0
68979,89742.00,506.26,506.41,1420,-7084,14824,1,0,0
69012,89742.00,506.26,506.41,3180,-5888,12020,1,0,0
69045,89743.00,506.16,506.41,-16,-6032,16040,1,0,0
69079,89743.00,506.16,506.41,1868,-6100,16480,1,0,0
69111,89743.00,506.16,506.41,6000,-6728,10600,1,0,0
69144,89743.00,506.16,506.41,3264,-7056,13060,1,0,0
69178,89743.00,506.16,506.41,760,-6180,21756,1,0,0
69215,89743.00,506.16,506.41,616,-6408,11936,1,0,0
69248,89743.00,506.16,506.40,1028,-7008,13860,1,0,0
69280,89743.00,506.16,506.40,2808,-6536,13420,1,0,0
69314,89743.00,506.16,506.40,2296,-6616,13464,1,0,0
69347,89743.00,506.16,506.40,2004,-6868,14184,1,0,0
69380,89742.00,506.26,506.40,1436,-7004,14380,1,0,0
69413,89742.00,506.26,506.40,2908,-6920,13484,1,0,0
69446,89742.00,506.26,506.40,3060,-6412,13880,1,0,0
69480,89743.00,506.16,506.40,2736,-6944,12440,1,0,0
69513,89743.00,506.16,506.40,2252,-6928,13660,1,0,0
69550,89743.00,506.16,506.40,2156,-6492,14152,1,0,0
69582,89743.00,506.16,506.39,-3356,-6892,12988,1,0,0
69616,89743.00,506.16,506.39,3372,-3848,18876,1,0,0
69658,89742.00,506.26,506.39,2868,-4388,16068,1,0,0
69691,89742.00,506.26,506.39,2032,-8984,13528,1,0,0
69724,89742.00,506.26,506.39,1868,-5624,12884,1,0,0
69757,89742.00,506.26,506.39,1776,-6100,14536,1,0,0
69790,89742.00,506.26,506.39,1908,-7072,13560,1,0,0
69823,89742.00,506.26,506.39,3156,-5812,13340,1,0,0
69857,89742.00,506.26,506.39,1216,-6088,13892,1,0,0
69894,89743.00,506.16,506.39,1796,-6688,14288,1,0,0
69926,89743.00,506.16,506.39,2064,-5204,13728,1,0,0
69959,89743.00,506.16,506.38,2160,-4076,14908,1,0,0
69993,89743.00,506.16,506.38,1332,-5120,14448,1,0,0
70026,89743.00,506.16,506.38,1520,-5548,14800,1,0,0
70059,89742.00,506.26,506.38,1812,-4804,13820,1,0,0
70092,89742.00,506.26,506.38,1660,-5092,14240,1,0,0
70125,89742.00,506.26,506.38,844,-4920,15496,1,0,0
70158,89742.00,506.26,506.38,800,-4428,14804,1,0,0
70195,89742.00,506.26,506.38,1280,-4404,14768,1,0,0
70228,89742.00,506.26,506.38,1528,-4764,14676,1,0,0
70261,89742.00,506.26,506.38,1232,-4380,14696,1,0,0
70319,89742.00,506.26,506.38,1224,-4668,14812,1,0,0
70351,89741.00,506.35,506.38,1036,-4800,15012,1,0,0
70384,89741.00,506.35,506.38,1088,-4272,14304,1,0,0
70418,89742.00,506.26,506.38,1032,-4120,15084,1,0,0
70451,89742.00,506.26,506.38,1248,-4528,14916,1,0,0
70483,89742.00,506.26,506.38,1256,-4448,14788,1,0,0
70517,89743.00,506.16,506.37,1196,-4920,15168,1,0,0
70554,89743.00,506.16,506.37,1288,-4812,14420,1,0,0
70587,89743.00,506.16,506.37,828,-4384,14916,1,0,0
70620,89743.00,506.16,506.37,732,-4492,14852,1,0,0
70653,89744.00,506.07,506.37,1604,-3784,14352,1,0,0
70686,89744.00,506.07,506.37,24,-3652,15008,1,0,0
70719,89744.00,506.07,506.37,728,-3968,14840,1,0,0
70752,89744.00,506.07,506.37,228,-4164,15036,1,0,0
70786,89744.00,506.07,506.36,556,-3368,14848,1,0,0
70818,89744.00,506.07,506.36,-484,-3380,15364,1,0,0
70851,89744.00,506.07,506.36,348,-2148,14532,1,0,0
70888,89744.00,506.07,506.36,560,-3592,15156,1,0,0
70921,89744.00,506.07,506.36,552,-3608,14768,1,0,0
70955,89744.00,506.07,506.36,2116,-3908,14488,1,0,0
70987,89744.00,506.07,506.36,952,-3676,14072,1,0,0
71020,89744.00,506.07,506.35,1824,-2952,13132,1,0,0
71054,89744.00,506.07,506.35,1528,-4496,16872,1,0,0
71087,89744.00,506.07,506.35,356,-3616,13504,1,0,0
71119,89744.00,506.07,506.35,664,-4816,15804,1,0,0
71152,89744.00,506.07,506.35,516,-5340,15944,1,0,0
71186,89743.00,506.16,506.35,292,-4812,15852,1,0,0
71223,89743.00,506.16,506.35,1244,-4696,14520,1,0,0
71256,89742.00,506.26,506.35,100,-5620,15812,1,0,0
71288,89743.00,506.16,506.34,2692,-3432,14220,1,0,0
71321,89742.00,506.26,506.34,2956,-5060,15992,1,0,0
71355,89743.00,506.16,506.34,2900,-4200,14376,1,0,0
71388,89743.00,506.16,506.34,2400,-3276,14976,1,0,0
71420,89743.00,506.16,506.34,2404,-3236,16572,1,0,0
71454,89743.00,506.16,506.34,-176,-3704,14820,1,0,0
71487,89742.00,506.26,506.34,-348,-5096,16064,1,0,0
71524,89743.00,506.16,506.34,-208,-5624,15196,1,0,0
71566,89743.00,506.16,506.34,2400,-4744,13432,1,0,0
71599,89743.00,506.16,506.34,4968,-4976,12512,1,0,0
71632,89743.00,506.16,506.34,4340,-6776,13828,1,0,0
71665,89742.00,506.26,506.34,2740,-5896,14696,1,0,0
71698,89742.00,506.26,506.34,1396,-5756,15248,1,0,0
71732,89742.00,506.26,506.34,2780,-4400,14360,1,0,0
71764,89742.00,506.26,506.34,1244,-4980,14212,1,0,0
71797,89743.00,506.16,506.33,2144,-4292,13656,1,0,0
71830,89742.00,506.26,506.33,1936,-4216,14768,1,0,0
71867,89743.00,506.16,506.33,2772,-3784,14756,1,0,0
71924,89743.00,506.16,506.33,1684,-4720,14004,1,0,0
71957,89742.00,506.26,506.33,3256,-1948,13980,1,0,0
71990,89742.00,506.26,506.33,528,-4040,15176,1,0,0
72023,89742.00,506.26,506.33,2484,-4932,13388,1,0,0
72055,89742.00,506.26,506.33,2104,-3076,13552,1,0,0
72088,89742.00,506.26,506.33,2932,-4208,11800,1,0,0
72122,89741.00,506.35,506.33,2168,-4420,12880,1,0,0
72155,89741.00,506.35,506.33,4080,-2824,14644,1,0,0
72187,89741.00,506.35,506.33,4300,-4172,10708,1,0,0
72223,89742.00,506.26,506.33,2880,-4252,14220,1,0,0
72257,89742.00,506.26,506.33,5104,-4240,15328,1,0,0
72290,89742.00,506.26,506.33,2548,-4288,14488,1,0,0
72323,89742.00,506.26,506.33,2164,-3864,13308,1,0,0
72355,89742.00,506.26,506.33,436,-3984,16292,1,0,0
72388,89743.00,506.16,506.33,-816,-4848,15648,1,0,0
72421,89743.00,506.16,506.33,-2040,-5096,16092,1,0,0
72454,89743.00,506.16,506.33,-444,-3908,14388,1,0,0
72487,89743.00,506.16,506.33,28,-3856,15064,1,0,0
72523,89743.00,506.16,506.33,360,-4704,15196,1,0,0
72557,89743.00,506.16,506.33,1044,-4216,13952,1,0,0
72590,89742.00,506.26,506.33,2136,-4092,15104,1,0,0
72624,89742.00,506.26,506.32,940,-3844,15112,1,0,0
72656,89742.00,506.26,506.32,-268,-4784,13140,1,0,0
72690,89743.00,506.16,506.32,292,-4456,14328,1,0,0
72723,89743.00,506.16,506.32,468,-5448,14008,1,0,0
72757,89743.00,506.16,506.32,2452,-5620,14312,1,0,0
72790,89743.00,506.16,506.32,788,-3476,13532,1,0,0
72823,89743.00,506.16,506.32,1832,-3244,13548,1,0,0
72860,89743.00,506.16,506.32,-88,-4260,12768,1,0,0
72894,89743.00,506.16,506.32,1244,-3968,14992,1,0,0
72927,89743.00,506.16,506.32,552,-3236,13756,1,0,0
72961,89743.00,506.16,506.32,1768,-4620,14216,1,0,0
72993,89743.00,506.16,506.32,336,-4956,13608,1,0,0
73027,89742.00,506.26,506.32,8,-4736,13620,1,0,0
73060,89742.00,506.26,506.32,-652,-3684,14400,1,0,0
73094,89743.00,506.16,506.32,20,-3844,15888,1,0,0
73126,89742.00,506.26,506.32,172,-4368,15336,1,0,0
73160,89742.00,506.26,506.32,-2356,-3580,17036,1,0,0
73197,89742.00,506.26,506.32,-1236,-3724,16016,1,0,0
73230,89742.00,506.26,506.32,-1060,-3676,15964,1,0,0
73264,89742.00,506.26,506.31,1396,-3484,18988,1,0,0
73296,89742.00,506.26,506.31,316,-4156,15852,1,0,0
73330,89742.00,506.26,506.31,460,-4308,15288,1,0,0
73363,89742.00,506.26,506.31,412,-3092,14988,1,0,0
73397,89743.00,506.16,506.31,8,-3640,15176,1,0,0
73430,89743.00,506.16,506.31,352,-4652,15016,1,0,0
73463,89744.00,506.07,506.31,-1248,-4012,15084,1,0,0
73530,89744.00,506.07,506.31,-1000,-4000,14588,1,0,0
73567,89744.00,506.07,506.31,-964,-3924,14952,1,0,0
73601,89745.00,505.98,506.31,-2712,-2944,15520,1,0,0
73633,89745.00,505.98,506.31,-2200,-4168,15316,1,0,0
73667,89744.00,506.07,506.31,-1044,-4552,15504,1,0,0
73701,89744.00,506.07,506.30,-13724,-1556,21984,1,0,0
73734,89744.00,506.07,506.30,5596,-3492,15552,1,0,0
73767,89744.00,506.07,506.30,948,-4420,15124,1,0,0
73800,89744.00,506.07,506.30,2040,-3320,15084,1,0,0
73833,89744.00,506.07,506.30,4660,-3608,15032,1,0,0
73871,89744.00,506.07,506.30,-468,-3168,14568,1,0,0
73904,89744.00,506.07,506.30,272,-3308,15596,1,0,0
73937,89744.00,506.07,506.30,428,-3592,16168,1,0,0
73970,89745.00,505.98,506.30,-80,-3748,15856,1,0,0
74003,89745.00,505.98,506.30,944,-4032,15536,1,0,0
74037,89744.00,506.07,506.29,-412,-3652,14476,1,0,0
74070,89744.00,506.07,506.29,604,-4136,14736,1,0,0
74103,89744.00,506.07,506.29,1088,-4056,14708,1,0,0
74136,89744.00,506.07,506.29,376,-3468,15236,1,0,0
74170,89744.00,506.07,506.29,1096,-3884,15508,1,0,0
74207,89744.00,506.07,506.29,1332,-3948,15288,1,0,0
74240,89743.00,506.16,506.29,-236,-3968,15144,1,0,0
74273,89743.00,506.16,506.29,-40,-3996,15312,1,0,0
74306,89743.00,506.16,506.29,240,-4296,14372,1,0,0
74340,89743.00,506.16,506.29,84,-3668,14924,1,0,0
74373,89743.00,506.16,506.29,-184,-3916,15784,1,0,0
74406,89744.00,506.07,506.29,-468,-3248,15088,1,0,0
74439,89745.00,505.98,506.28,1184,-3540,14956,1,0,0
74473,89745.00,505.98,506.28,876,-3104,15192,1,0,0
74506,89745.00,505.98,506.28,-8,-3532,14524,1,0,0
74543,89745.00,505.98,506.28,48,-3892,15420,1,0,0
74576,89745.00,505.98,506.28,320,-3236,16584,1,0,0
74609,89745.00,505.98,506.28,-2064,-584,17424,1,0,0
74642,89745.00,505.98,506.28,980,-3036,17880,1,0,0
74676,89745.00,505.98,506.28,1632,-5404,15664,1,0,0
74708,89745.00,505.98,506.27,456,-3588,14172,1,0,0
74742,89744.00,506.07,506.27,620,-4404,16728,1,0,0
74775,89744.00,506.07,506.27,-372,-3392,15696,1,0,0
74809,89744.00,506.07,506.27,164,-3168,15380,1,0,0
74842,89743.00,506.16,506.27,-112,-2816,14228,1,0,0
74878,89743.00,506.16,506.27,-396,-3632,15240,1,0,0
74912,89743.00,506.16,506.27,-1068,-3472,14700,1,0,0
74945,89742.00,506.26,506.27,-932,-3016,15316,1,0,0
74979,89742.00,506.26,506.27,-828,-2168,18680,1,0,0
75012,89741.00,506.35,506.27,524,-3040,17072,1,0,0
75045,89741.00,506.35,506.27,936,-4620,15716,1,0,0
75103,89742.00,506.26,506.27,-372,-3456,15660,1,0,0
75137,89742.00,506.26,506.27,-128,-3572,15356,1,0,0
75169,89742.00,506.26,506.27,-720,-3088,15088,1,0,0
75206,89742.00,506.26,506.27,-420,-3032,14692,1,0,0
75240,89742.00,506.26,506.27,856,-3944,14784,1,0,0
75273,89742.00,506.26,506.27,-216,-3480,15032,1,0,0
75307,89741.00,506.35,506.27,-960,-2936,15344,1,0,0
75339,89741.00,506.35,506.27,976,-3864,15788,1,0,0
75373,89742.00,506.26,506.27,-268,-3944,14796,1,0,0
75406,89742.00,506.26,506.27,-56,-2836,16532,1,0,0
75448,89742.00,506.26,506.27,3068,-4760,13900,1,0,0
75482,89742.00,506.26,506.27,-448,-3704,15088,1,0,0
75514,89743.00,506.16,506.27,188,-3764,14776,1,0,0
75551,89743.00,506.16,506.27,-1172,-3060,15044,1,0,0
75585,89743.00,506.16,506.27,64,-3580,15084,1,0,0
75618,89744.00,506.07,506.27,-264,-3636,15276,1,0,0
75652,89744.00,506.07,506.27,148,-3988,15072,1,0,0
75684,89744.00,506.07,506.27,288,-4248,14840,1,0,0
75718,89744.00,506.07,506.27,-584,-4900,14044,1,0,0
75751,89744.00,506.07,506.27,-28,-4208,14604,1,0,0
75784,89744.00,506.07,506.26,356,-3884,14920,1,0,0
75817,89744.00,506.07,506.26,388,-2356,15184,1,0,0
75850,89744.00,506.07,506.26,1164,-2436,17188,1,0,0
75887,89744.00,506.07,506.26,700,-3328,15376,1,0,0
75921,89744.00,506.07,506.26,-1016,-3720,15228,1,0,0
75954,89744.00,506.07,506.26,1220,-3056,14964,1,0,0
75987,89744.00,506.07,506.26,3300,-2712,14868,1,0,0
76020,89744.00,506.07,506.26,4708,-3068,14040,1,0,0
76054,89744.00,506.07,506.26,164,-4888,16664,1,0,0
76087,89743.00,506.16,506.26,2340,-1064,14312,1,0,0
76121,89743.00,506.16,506.26,5240,-2012,14488,1,0,0
76153,89743.00,506.16,506.26,2288,-3536,15264,1,0,0
76190,89743.00,506.16,506.26,-2112,-4068,15808,1,0,0
76224,89743.00,506.16,506.26,-1580,-3740,16040,1,0,0
76257,89744.00,506.07,506.26,1184,-2768,14488,1,0,0
76290,89744.00,506.07,506.26,952,-3900,14636,1,0,0
76323,89744.00,506.07,506.25,-776,-5468,14532,1,0,0
76356,89744.00,506.07,506.25,-620,-4540,15820,1,0,0
76390,89744.00,506.07,506.25,1332,-3224,13920,1,0,0
76423,89743.00,506.16,506.25,116,-2452,15792,1,0,0
76456,89743.00,506.16,506.25,1988,-3616,13772,1,0,0
76489,89743.00,506.16,506.25,1900,-2732,14608,1,0,0
76526,89742.00,506.26,506.25,2648,-2200,14112,1,0,0
76560,89742.00,506.26,506.25,1720,-1788,14756,1,0,0
76593,89742.00,506.26,506.25,-6276,-3884,31224,1,0,0
76625,89743.00,506.16,506.25,6004,-1040,20904,1,0,0
76684,89743.00,506.16,506.25,-2316,-3940,13088,1,0,0
76718,89743.00,506.16,506.25,-772,-4688,14244,1,0,0
76750,89743.00,506.16,506.25,-4220,-7000,13808,1,0,0
76783,89743.00,506.16,506.25,-2180,-3920,15816,1,0,0
76817,89744.00,506.07,506.25,2076,-1892,14140,1,0,0
76850,89744.00,506.07,506.25,2080,-980,14060,1,0,0
76887,89743.00,506.16,506.25,740,-2312,15652,1,0,0
76920,89743.00,506.16,506.25,2556,-3612,14724,1,0,0
76953,89743.00,506.16,506.25,492,-4776,15060,1,0,0
76987,89742.00,506.26,506.25,2212,-3052,11868,1,0,0
77020,89742.00,506.26,506.25,2608,-3692,13368,1,0,0
77052,89742.00,506.26,506.25,728,-2828,16880,1,0,0
77086,89741.00,506.35,506.25,2204,-3020,14936,1,0,0
77119,89741.00,506.35,506.25,556,-4560,14228,1,0,0
77153,89742.00,506.26,506.25,2176,-3136,15020,1,0,0
77190,89742.00,506.26,506.25,1040,-2564,14784,1,0,0
77222,89742.00,506.26,506.25,1060,-2148,15460,1,0,0
77256,89742.00,506.26,506.25,1604,-2540,14832,1,0,0
77289,89742.00,506.26,506.25,-320,-2680,16996,1,0,0
77322,89742.00,506.26,506.25,-676,-1432,14644,1,0,0
77356,89743.00,506.16,506.25,3528,-2164,13020,1,0,0
77398,89742.00,506.26,506.25,-1164,-3072,13092,1,0,0
77430,89743.00,506.16,506.25,1492,-3344,14124,1,0,0
77464,89743.00,506.16,506.25,-680,-2896,15476,1,0,0
77497,89743.00,506.16,506.25,1568,-4252,14092,1,0,0
77534,89742.00,506.26,506.25,1080,-3076,15508,1,0,0
77568,89742.00,506.26,506.25,868,-2724,15808,1,0,0
77600,89742.00,506.26,506.25,788,-2992,14400,1,0,0
77633,89742.00,506.26,506.25,904,-3128,14572,1,0,0
77667,89742.00,506.26,506.25,692,-1952,15048,1,0,0
77700,89742.00,506.26,506.25,476,-3364,15560,1,0,0
77733,89742.00,506.26,506.25,648,-2872,14544,1,0,0
77766,89742.00,506.26,506.25,208,-1888,16088,1,0,0
77799,89742.00,506.26,506.25,632,-2460,16456,1,0,0
77833,89742.00,506.26,506.25,636,-3168,15044,1,0,0
77870,89742.00,506.26,506.25,-1440,-5276,15164,1,0,0
77902,89742.00,506.26,506.25,640,-3016,15296,1,0,0
77936,89742.00,506.26,506.25,1980,-2636,14488,1,0,0
77969,89742.00,506.26,506.25,1216,-2828,14644,1,0,0
78002,89742.00,506.26,506.25,1208,-2824,15492,1,0,0
78035,89742.00,506.26,506.25,724,-2620,15400,1,0,0
78068,89742.00,506.26,506.25,1348,-2176,14748,1,0,0
78102,89742.00,506.26,506.25,-224,-3144,15768,1,0,0
78135,89742.00,506.26,506.25,660,-1840,15132,1,0,0
78168,89742.00,506.26,506.25,888,-2552,15764,1,0,0
78204,89742.00,506.26,506.25,-240,-2784,16896,1,0,0
78263,89741.00,506.35,506.25,1204,-3000,15236,1,0,0
78296,89741.00,506.35,506.25,1040,-2652,14340,1,0,0
78329,89741.00,506.35,506.25,972,-2464,15012,1,0,0
78362,89741.00,506.35,506.25,868,-2600,15332,1,0,0
78396,89741.00,506.35,506.25,2352,-2836,13112,1,0,0
78429,89741.00,506.35,506.25,1684,-2940,13220,1,0,0
78461,89740.00,506.44,506.25,500,-2404,15136,1,0,0
78495,89740.00,506.44,506.25,96,-3244,15256,1,0,0
78532,89740.00,506.44,506.25,2624,-5044,14160,1,0,0
78565,89741.00,506.35,506.25,1068,-2108,14264,1,0,0
78599,89741.00,506.35,506.25,4240,-2796,12180,1,0,0
78631,89742.00,506.26,506.25,6644,-1524,14092,1,0,0
78664,89742.00,506.26,506.25,620,-3100,16756,1,0,0
78698,89742.00,506.26,506.25,3568,-1772,16516,1,0,0
78731,89742.00,506.26,506.25,28,-2100,14096,1,0,0
78764,89742.00,506.26,506.25,-1616,-2324,15888,1,0,0
78797,89742.00,506.26,506.25,-656,-1984,15608,1,0,0
78830,89742.00,506.26,506.25,1540,-1928,15740,1,0,0
78867,89742.00,506.26,506.25,-416,-3484,15356,1,0,0
78900,89742.00,506.26,506.25,2296,-3632,10956,1,0,0
78934,89742.00,506.26,506.25,788,-3932,14684,1,0,0
78966,89743.00,506.16,506.25,-96,-2968,14352,1,0,0
78999,89742.00,506.26,506.25,-1104,-1760,15844,1,0,0
79033,89742.00,506.26,506.25,384,-2768,16376,1,0,0
79066,89742.00,506.26,506.25,772,-2660,14928,1,0,0
79098,89743.00,506.16,506.25,-132,-3020,14924,1,0,0
79132,89743.00,506.16,506.25,208,-3672,14744,1,0,0
79165,89743.00,506.16,506.25,1916,-3072,14808,1,0,0
79202,89744.00,506.07,506.25,-1264,-2712,15624,1,0,0
79236,89744.00,506.07,506.25,2156,-3384,14328,1,0,0
79268,89743.00,506.16,506.25,732,-2332,14708,1,0,0
79310,89742.00,506.26,506.25,172,-2776,14912,1,0,0
79343,89742.00,506.26,506.25,-332,-2560,15852,1,0,0
79377,89742.00,506.26,506.25,904,-3312,15504,1,0,0
79410,89742.00,506.26,506.25,76,-2612,14212,1,0,0
79442,89742.00,506.26,506.25,180,-2244,15492,1,0,0
79476,89742.00,506.26,506.25,744,-3296,14412,1,0,0
79509,89743.00,506.16,506.25,-264,-2812,15324,1,0,0
79546,89743.00,506.16,506.25,1268,-2500,15360,1,0,0
79579,89742.00,506.26,506.25,160,-2908,14832,1,0,0
79612,89742.00,506.26,506.25,-728,-2428,16060,1,0,0
79645,89742.00,506.26,506.25,764,-3144,14960,1,0,0
79678,89741.00,506.35,506.25,-56,-3176,15676,1,0,0
79712,89741.00,506.35,506.25,-224,-3496,15176,1,0,0
79745,89742.00,506.26,506.25,272,-3648,14900,1,0,0
79777,89742.00,506.26,506.25,8,-4124,15188,1,0,0
79836,89742.00,506.26,506.25,3404,-2832,14128,1,0,0
79873,89742.00,506.26,506.25,1224,-2604,15128,1,0,0
79905,89742.00,506.26,506.25,700,-2784,15112,1,0,0
79938,89742.00,506.26,506.25,632,-2884,17152,1,0,0
79971,89742.00,506.26,506.25,1732,-3320,15996,1,0,0
80005,89742.00,506.26,506.25,-632,-3032,15380,1,0,0
80037,89742.00,506.26,506.25,1480,-3356,15204,1,0,0
80070,89742.00,506.26,506.25,660,-3440,14380,1,0,0
80104,89742.00,506.26,506.25,-380,-2408,14200,1,0,0
80137,89742.00,506.26,506.25,1752,-3216,15736,1,0,0
80169,89742.00,506.26,506.25,868,-3316,14792,1,0,0
80206,89742.00,506.26,506.25,-244,-2428,16604,1,0,0
80240,89742.00,506.26,506.25,692,-3012,16172,1,0,0
80273,89742.00,506.26,506.25,276,-2864,16228,1,0,0
80306,89742.00,506.26,506.25,256,-2784,15376,1,0,0
80338,89742.00,506.26,506.25,552,-3328,15856,1,0,0
80372,89742.00,506.26,506.25,424,-3276,15304,1,0,0
80405,89742.00,506.26,506.25,1012,-2988,15344,1,0,0
80438,89742.00,506.26,506.25,92,-2668,14200,1,0,0
80472,89742.00,506.26,506.25,1628,-2776,15300,1,0,0
80504,89741.00,506.35,506.25,660,-3260,15876,1,0,0
80541,89741.00,506.35,506.25,-3152,-3160,18964,1,0,0
80574,89741.00,506.35,506.25,2276,-4120,14544,1,0,0
80608,89741.00,506.35,506.25,-4080,-2764,17076,1,0,0
80641,89741.00,506.35,506.25,1128,-2764,16464,1,0,0
80673,89742.00,506.26,506.25,872,-2744,15744,1,0,0
80706,89742.00,506.26,506.25,416,-2220,15604,1,0,0
80740,89742.00,506.26,506.25,1536,-3216,15296,1,0,0
80773,89742.00,506.26,506.25,716,-4128,13200,1,0,0
80805,89742.00,506.26,506.25,-256,-2932,13968,1,0,0
80839,89742.00,506.26,506.25,200,-3188,15108,1,0,0
80876,89741.00,506.35,506.25,604,-2700,15280,1,0,0
80909,89741.00,506.35,506.25,1636,-3528,15660,1,0,0
80942,89741.00,506.35,506.25,1148,-3248,14028,1,0,0
80975,89741.00,506.35,506.25,136,-2132,14888,1,0,0
81008,89742.00,506.26,506.25,216,-2228,15308,1,0,0
81041,89742.00,506.26,506.25,-8,-2988,13988,1,0,0
81074,89741.00,506.35,506.25,2564,-3196,13288,1,0,0
81107,89741.00,506.35,506.25,408,-3132,15424,1,0,0
81140,89741.00,506.35,506.26,276,-2788,15568,1,0,0
81177,89741.00,506.35,506.26,-152,-2968,15192,1,0,0
81210,89741.00,506.35,506.26,-216,-3360,15008,1,0,0
81252,89741.00,506.35,506.26,460,-2860,15048,1,0,0
81286,89740.00,506.44,506.26,580,-3444,15388,1,0,0
81318,89740.00,506.44,506.26,988,-3292,14916,1,0,0
81351,89740.00,506.44,506.26,1148,-3772,15232,1,0,0
81409,89740.00,506.44,506.26,508,-3112,15296,1,0,0
81442,89740.00,506.44,506.26,364,-2980,12992,1,0,0
81475,89740.00,506.44,506.26,2132,-3272,14280,1,0,0
81508,89740.00,506.44,506.26,1040,-3156,15020,1,0,0
81545,89740.00,506.44,506.26,1024,-3068,14980,1,0,0
81579,89740.00,506.44,506.26,1056,-2992,15096,1,0,0
81611,89740.00,506.44,506.26,1168,-3380,15164,1,0,0
81644,89740.00,506.44,506.26,936,-2656,14568,1,0,0
81678,89740.00,506.44,506.26,1108,-3204,14940,1,0,0
81711,89740.00,506.44,506.26,-208,-3496,15904,1,0,0
81743,89740.00,506.44,506.26,-200,-3604,15176,1,0,0
81777,89741.00,506.44,506.26,588,-3308,15124,1,0,0
81810,89741.00,506.35,506.26,-184,-3428,14776,1,0,0
81843,89741.00,506.35,506.26,1148,-3160,14812,1,0,0
81880,89741.00,506.35,506.27,1284,-4340,15304,1,0,0
81913,89741.00,506.35,506.27,364,-2792,15712,1,0,0
81946,89740.00,506.44,506.27,260,-3812,15928,1,0,0
81979,89740.00,506.44,506.27,-212,-3872,14340,1,0,0
82013,89741.00,506.35,506.27,-2324,-4084,15380,1,0,0
82045,89741.00,506.35,506.27,700,-3108,14588,1,0,0
82078,89741.00,506.35,506.27,364,-2572,14188,1,0,0
82112,89741.00,506.35,506.27,-788,-4088,16020,1,0,0
82145,89741.00,506.35,506.27,-796,-4484,14736,1,0,0
82178,89741.00,506.35,506.27,688,-3632,14120,1,0,0
82214,89741.00,506.35,506.27,-892,-4564,15044,1,0,0
82247,89741.00,506.35,506.27,-84,-3844,13724,1,0,0
82281,89741.00,506.35,506.27,948,-4536,14740,1,0,0
82314,89741.00,506.35,506.27,136,-5012,14964,1,0,0
82347,89741.00,506.35,506.27,1552,-2488,13320,1,0,0
82380,89741.00,506.35,506.27,672,-3464,14008,1,0,0
82413,89741.00,506.35,506.27,1164,-3680,14408,1,0,0
82446,89740.00,506.44,506.27,1412,-4704,15640,1,0,0
82479,89741.00,506.35,506.27,1176,-3536,14264,1,0,0
82515,89741.00,506.35,506.27,2192,-2844,13592,1,0,0
82548,89741.00,506.35,506.27,-448,-5024,13792,1,0,0
82582,89742.00,506.26,506.27,-2128,-6032,14016,1,0,0
82615,89742.00,506.26,506.27,-792,-5056,13660,1,0,0
82648,89742.00,506.26,506.27,-3588,-5732,14860,1,0,0
82680,89742.00,506.26,506.27,-4904,-6712,14268,1,0,0
82713,89742.00,506.26,506.27,-3676,-6564,14260,1,0,0
82746,89742.00,506.26,506.27,-4104,-6768,14200,1,0,0
82779,89742.00,506.26,506.27,-3908,-7792,13492,1,0,0
82811,89741.00,506.35,506.27,-4372,-8612,12040,1,0,0
82930,89741.00,506.35,506.27,-3760,-5540,14008,1,0,0
82964,89741.00,506.35,506.27,-1548,-2688,14632,1,0,0
82997,89741.00,506.35,506.27,-1384,-3252,15124,1,0,0
83055,89741.00,506.35,506.27,-5972,-5160,23568,1,0,0
83088,89741.00,506.35,506.27,-4624,-5924,17420,1,0,0
83121,89740.00,506.44,506.27,-1172,-6592,13980,1,0,0
83153,89740.00,506.44,506.27,-2432,-6288,12628,1,0,0
83186,89740.00,506.44,506.27,-760,-4212,10520,1,0,0
83228,89741.00,506.35,506.27,-1504,-6588,8452,1,0,0
83265,89741.00,506.35,506.27,-2680,-6520,16292,1,0,0
83299,89741.00,506.35,506.27,384,-6308,14176,1,0,0
83332,89741.00,506.35,506.27,-1228,-6736,11700,1,0,0
83365,89742.00,506.26,506.27,1424,-5820,14000,1,0,0
83398,89742.00,506.26,506.27,1284,-5328,14256,1,0,0
83432,89742.00,506.26,506.27,84,-6984,12540,1,0,0
83465,89743.00,506.16,506.27,-548,-6260,13556,1,0,0
83499,89743.00,506.16,506.27,-2804,-5900,15052,1,0,0
83532,89743.00,506.16,506.27,-3036,-5676,19300,1,0,0
83565,89743.00,506.16,506.27,3892,-6992,13160,1,0,0
83602,89743.00,506.16,506.27,-2840,-6844,25624,1,0,0
83636,89743.00,506.16,506.27,1124,-6836,16500,1,0,0
83668,89743.00,506.16,506.27,1876,-7960,9976,1,0,0
83702,89743.00,506.16,506.27,2564,-6596,13456,1,0,0
83735,89742.00,506.26,506.27,1984,-6092,15620,1,0,0
83769,89742.00,506.26,506.27,1696,-6708,13816,1,0,0
83803,89742.00,506.26,506.27,1996,-6872,13076,1,0,0
83835,89742.00,506.26,506.27,2036,-6736,13864,1,0,0
83869,89741.00,506.35,506.27,1884,-6600,14092,1,0,0
83902,89741.00,506.35,506.27,1920,-6592,13744,1,0,0
83939,89740.00,506.44,506.27,2020,-6688,13852,1,0,0
83973,89741.00,506.35,506.27,1944,-6696,13868,1,0,0
84005,89741.00,506.35,506.27,1980,-6684,13608,1,0,0
84039,89741.00,506.35,506.27,2024,-6692,13736,1,0,0
84072,89741.00,506.35,506.27,1936,-6792,13992,1,0,0
84106,89741.00,506.35,506.27,1988,-6608,13700,1,0,0
84139,89741.00,506.35,506.27,2168,-6664,13656,1,0,0
84172,89741.00,506.35,506.27,2124,-6776,14012,1,0,0
84206,89741.00,506.35,506.27,2128,-6340,13616,1,0,0
84243,89741.00,506.35,506.27,2064,-6648,13860,1,0,0
84276,89741.00,506.35,506.27,2312,-6476,13568,1,0,0
84310,89741.00,506.35,506.27,1968,-6816,13856,1,0,0
84342,89741.00,506.35,506.27,1924,-6704,13952,1,0,0
84376,89742.00,506.26,506.27,1992,-6584,13916,1,0,0
84409,89741.00,506.35,506.27,1920,-6792,13960,1,0,0
84443,89741.00,506.35,506.28,1980,-6776,13776,1,0,0
84475,89742.00,506.26,506.28,2116,-6636,13664,1,0,0
84509,89742.00,506.26,506.27,1824,-6620,13988,1,0,0
84542,89742.00,506.26,506.27,1976,-6668,13868,1,0,0
84580,89742.00,506.26,506.27,1804,-6784,14100,1,0,0
84638,89742.00,506.26,506.27,1952,-6764,14040,1,0,0
84671,89742.00,506.26,506.27,1964,-6584,13736,1,0,0
84705,89742.00,506.26,506.27,2104,-6508,13800,1,0,0
84738,89742.00,506.26,506.27,1836,-6684,13928,1,0,0
84771,89741.00,506.35,506.27,1832,-6680,13928,1,0,0
84805,89742.00,506.26,506.27,2328,-5476,12944,1,0,0
84838,89742.00,506.26,506.27,1860,-7056,13944,1,0,0
84872,89742.00,506.26,506.27,1756,-6960,14328,1,0,0
84904,89742.00,506.26,506.27,2356,-6428,13652,1,0,0
84941,89742.00,506.26,506.27,1928,-6724,13944,1,0,0
84975,89742.00,506.26,506.27,2076,-6700,13816,1,0,0
85008,89743.00,506.16,506.27,2100,-6732,13880,1,0,0
85042,89742.00,506.26,506.27,1968,-6688,13876,1,0,0
85074,89742.00,506.26,506.27,2056,-6788,13744,1,0,0
85108,89742.00,506.26,506.27,2032,-6740,13744,1,0,0
85141,89742.00,506.26,506.27,1968,-6680,13748,1,0,0
85183,89742.00,506.26,506.27,1956,-6640,13952,1,0,0
85217,89742.00,506.26,506.27,2048,-6668,13800,1,0,0
85254,89741.00,506.35,506.27,1992,-6652,13856,1,0,0
85287,89741.00,506.35,506.27,2356,-6680,13356,1,0,0
85320,89741.00,506.35,506.27,1844,-6872,13992,1,0,0
85354,89741.00,506.35,506.27,1948,-6776,14016,1,0,0
85387,89741.00,506.35,506.27,2732,-6280,13052,1,0,0
85421,89741.00,506.35,506.27,2148,-6764,14140,1,0,0
85453,89741.00,506.35,506.27,1804,-6816,14000,1,0,0
85487,89741.00,506.35,506.28,2240,-6468,13456,1,0,0
85520,89741.00,506.35,506.28,2076,-6728,13964,1,0,0
85554,89741.00,506.35,506.28,1876,-6796,13816,1,0,0
85591,89742.00,506.26,506.28,2036,-6728,13752,1,0,0
85623,89742.00,506.26,506.28,1852,-6660,13928,1,0,0
85657,89742.00,506.26,506.28,1908,-6840,13972,1,0,0
85690,89741.00,506.35,506.28,2004,-6600,13900,1,0,0
85724,89742.00,506.26,506.28,2116,-6720,13740,1,0,0
85756,89742.00,506.26,506.28,2004,-6728,13796,1,0,0
85790,89742.00,506.26,506.28,1948,-6656,13908,1,0,0
85823,89741.00,506.35,506.28,2000,-6628,13684,1,0,0
85857,89741.00,506.35,506.28,2136,-6628,13820,1,0,0
85890,89740.00,506.44,506.28,2004,-6640,13800,1,0,0
85926,89740.00,506.44,506.28,2064,-6696,13940,1,0,0
85960,89740.00,506.44,506.28,2212,-6572,13700,1,0,0
85993,89740.00,506.44,506.28,1944,-6864,13700,1,0,0
86027,89740.00,506.44,506.28,1872,-6872,13984,1,0,0
86060,89740.00,506.44,506.28,2220,-6584,13652,1,0,0
86093,89740.00,506.44,506.28,2332,-6704,13528,1,0,0
86126,89741.00,506.35,506.28,1624,-6936,14456,1,0,0
86160,89740.00,506.44,506.28,2048,-6640,13696,1,0,0
86218,89741.00,506.35,506.28,2024,-6548,13668,1,0,0
86255,89741.00,506.35,506.28,2164,-6824,13916,1,0,0
86289,89741.00,506.35,506.28,1204,-6744,14592,1,0,0
86322,89741.00,506.35,506.28,1748,-6864,14140,1,0,0
86355,89741.00,506.35,506.28,2160,-6692,13640,1,0,0
86388,89741.00,506.35,506.28,2172,-6592,13816,1,0,0
86422,89741.00,506.35,506.28,2136,-6644,13728,1,0,0
86455,89741.00,506.35,506.28,2008,-6676,13904,1,0,0
86489,89741.00,506.35,506.28,2004,-6736,13824,1,0,0
86521,89741.00,506.35,506.28,1988,-6604,13756,1,0,0
86555,89741.00,506.35,506.28,1888,-6768,14116,1,0,0
86592,89741.00,506.35,506.28,2036,-6600,13768,1,0,0
86625,89741.00,506.35,506.28,1344,-6824,14448,1,0,0
86659,89741.00,506.35,506.28,2704,-6924,13196,1,0,0
86691,89741.00,506.35,506.28,2568,-6712,13480,1,0,0
86725,89741.00,506.35,506.28,2004,-6612,13736,1,0,0
86758,89741.00,506.35,506.28,1836,-6852,14148,1,0,0
86792,89741.00,506.35,506.28,1644,-6944,13700,1,0,0
86824,89741.00,506.35,506.28,1880,-6836,14056,1,0,0
86858,89741.00,506.35,506.28,2120,-6380,13560,1,0,0
86891,89742.00,506.26,506.28,1780,-6824,14020,1,0,0
86928,89742.00,506.26,506.28,2216,-6716,13660,1,0,0
86962,89742.00,506.26,506.28,2088,-6756,13680,1,0,0
86994,89743.00,506.16,506.28,1940,-6644,13896,1,0,0
87028,89743.00,506.16,506.28,1968,-6688,13920,1,0,0
87061,89743.00,506.16,506.28,1972,-6748,13864,1,0,0
87103,89742.00,506.26,506.28,2004,-6656,13844,1,0,0
87137,89742.00,506.26,506.28,1996,-6648,13848,1,0,0
87170,89742.00,506.26,506.28,1948,-6632,13856,1,0,0
87202,89742.00,506.26,506.28,2044,-6652,13724,1,0,0
87240,89742.00,506.26,506.28,1892,-6644,13932,1,0,0
87273,89742.00,506.26,506.28,1940,-6620,13808,1,0,0
87307,89742.00,506.26,506.28,2080,-6724,13856,1,0,0
87340,89742.00,506.26,506.28,1952,-6720,13732,1,0,0
87372,89742.00,506.26,506.28,1904,-6672,13764,1,0,0
87406,89742.00,506.26,506.28,2012,-6728,13808,1,0,0
87439,89741.00,506.35,506.28,1928,-6700,13852,1,0,0
87473,89742.00,506.26,506.28,2080,-6632,13748,1,0,0
87505,89742.00,506.26,506.28,2044,-6648,13868,1,0,0
87539,89742.00,506.26,506.28,1924,-6760,13864,1,0,0
87576,89742.00,506.26,506.28,2140,-6736,13816,1,0,0
87609,89742.00,506.26,506.28,2036,-6724,13900,1,0,0
87643,89742.00,506.26,506.28,2016,-6688,13912,1,0,0
87675,89743.00,506.16,506.28,2016,-6736,13828,1,0,0
87709,89743.00,506.16,506.28,2072,-6612,13880,1,0,0
87768,89743.00,506.16,506.28,2112,-6696,13856,1,0,0
87800,89743.00,506.16,506.28,2028,-6628,13688,1,0,0
87834,89743.00,506.16,506.28,1924,-6712,13812,1,0,0
87867,89743.00,506.16,506.28,1948,-6780,13748,1,0,0
87901,89743.00,506.16,506.28,1952,-6656,13836,1,0,0
87938,89743.00,506.16,506.28,2028,-6692,13916,1,0,0
87970,89743.00,506.16,506.28,1944,-6756,13856,1,0,0
88004,89743.00,506.16,506.28,1984,-6672,13804,1,0,0
88037,89744.00,506.07,506.28,2172,-6696,13716,1,0,0
88070,89744.00,506.07,506.28,2060,-6768,13796,1,0,0
88103,89743.00,506.16,506.28,1972,-6728,13920,1,0,0
88136,89744.00,506.07,506.28,2052,-6748,13888,1,0,0
88170,89744.00,506.07,506.28,2144,-6696,13864,1,0,0
88203,89744.00,506.07,506.28,2104,-6728,13684,1,0,0
88240,89744.00,506.07,506.28,1928,-6684,13864,1,0,0
88273,89744.00,506.07,506.28,1884,-6796,13816,1,0,0
88306,89744.00,506.07,506.27,2096,-6692,13800,1,0,0
88339,89744.00,506.07,506.27,2028,-6668,13836,1,0,0
88373,89744.00,506.07,506.27,1888,-6732,13824,1,0,0
88406,89744.00,506.07,506.27,1996,-6708,13956,1,0,0
88439,89744.00,506.07,506.27,2056,-6640,13860,1,0,0
88472,89744.00,506.07,506.27,2104,-6712,13760,1,0,0
88505,89745.00,505.98,506.27,2064,-6784,13744,1,0,0
88539,89745.00,505.98,506.27,1976,-6708,13848,1,0,0
88576,89745.00,505.98,506.27,2136,-6700,13840,1,0,0
88608,89744.00,506.07,506.27,2052,-6616,13800,1,0,0
88642,89745.00,505.98,506.27,1880,-6760,13896,1,0,0
88675,89745.00,505.98,506.27,1980,-6692,13912,1,0,0
88709,89745.00,505.98,506.27,2064,-6572,13840,1,0,0
88741,89745.00,505.98,506.27,2132,-6692,13816,1,0,0
88774,89745.00,505.98,506.27,2024,-6736,13804,1,0,0
88808,89744.00,506.07,506.27,1944,-6764,13996,1,0,0
88841,89744.00,506.07,506.26,1916,-6680,13716,1,0,0
88875,89743.00,506.16,506.26,2024,-6736,13776,1,0,0
88911,89743.00,506.16,506.26,2052,-6692,13728,1,0,0
88944,89743.00,506.16,506.26,2144,-6696,13888,1,0,0
88978,89743.00,506.16,506.26,2108,-6724,13860,1,0,0
89011,89742.00,506.26,506.26,2012,-6744,13940,1,0,0
89053,89743.00,506.16,506.26,2032,-6672,13804,1,0,0
89085,89743.00,506.16,506.26,2072,-6612,13840,1,0,0
89119,89743.00,506.16,506.26,1980,-6688,13888,1,0,0
89152,89743.00,506.16,506.26,1948,-6700,13928,1,0,0
89186,89743.00,506.16,506.26,1996,-6624,13828,1,0,0
89223,89742.00,506.26,506.26,2040,-6732,13936,1,0,0
89255,89742.00,506.26,506.26,2080,-6660,13844,1,0,0
89289,89742.00,506.26,506.26,2096,-6672,13848,1,0,0
89348,89742.00,506.26,506.26,2104,-6680,13848,1,0,0
89380,89742.00,506.26,506.26,1988,-6680,13964,1,0,0
89413,89742.00,506.26,506.26,2016,-6648,13676,1,0,0
89447,89742.00,506.26,506.26,2140,-6792,13868,1,0,0
89480,89742.00,506.26,506.26,2072,-6668,13844,1,0,0
89513,89742.00,506.26,506.26,2044,-6796,13820,1,0,0
89546,89742.00,506.26,506.26,2064,-6652,13892,1,0,0
89583,89742.00,506.26,506.26,1948,-6732,13904,1,0,0
89617,89741.00,506.35,506.26,1908,-6696,13808,1,0,0
89650,89741.00,506.35,506.26,2048,-6740,13888,1,0,0
89682,89741.00,506.35,506.26,2116,-6708,13712,1,0,0
89716,89741.00,506.35,506.26,2160,-6704,13764,1,0,0
89749,89741.00,506.35,506.26,1980,-6752,13792,1,0,0
89783,89741.00,506.35,506.26,2068,-6688,13884,1,0,0
89816,89741.00,506.35,506.26,2096,-6816,13852,1,0,0
89848,89742.00,506.26,506.26,2052,-6740,13864,1,0,0
89882,89742.00,506.26,506.26,1980,-6732,13804,1,0,0
89919,89742.00,506.26,506.26,2112,-6716,13868,1,0,0
89952,89742.00,506.26,506.26,1980,-6672,13976,1,0,0
89986,89741.00,506.35,506.26,1884,-6596,13936,1,0,0
90018,89741.00,506.35,506.26,2040,-6688,13780,1,0,0
90051,89741.00,506.35,506.26,2056,-6592,13832,1,0,0
90085,89741.00,506.35,506.26,1936,-6660,13896,1,0,0
90118,89741.00,506.35,506.26,2076,-6648,13848,1,0,0
90151,89740.00,506.44,506.27,1892,-6676,13712,1,0,0
90184,89741.00,506.35,506.27,2060,-6748,13904,1,0,0
90221,89741.00,506.35,506.27,2020,-6688,13816,1,0,0
90255,89741.00,506.35,506.27,2004,-6652,13864,1,0,0
90288,89740.00,506.44,506.27,2100,-6640,13884,1,0,0
90320,89740.00,506.44,506.27,2124,-6680,13824,1,0,0
90354,89741.00,506.35,506.27,2080,-6636,13896,1,0,0
90387,89741.00,506.35,506.27,2064,-6748,13796,1,0,0
90420,89741.00,506.35,506.27,2004,-6764,13852,1,0,0
90454,89741.00,506.35,506.27,1976,-6620,13792,1,0,0
90486,89741.00,506.35,506.27,2004,-6672,13888,1,0,0
90520,89741.00,506.35,506.27,2024,-6688,13892,1,0,0
90557,89740.00,506.44,506.27,2032,-6672,13944,1,0,0
90590,89740.00,506.44,506.27,2020,-6736,13768,1,0,0
90622,89740.00,506.44,506.27,2052,-6688,13856,1,0,0
90656,89740.00,506.44,506.27,2044,-6776,13844,1,0,0
90689,89740.00,506.44,506.27,2088,-6752,13876,1,0,0
90723,89739.00,506.54,506.27,2080,-6688,13828,1,0,0
90756,89740.00,506.44,506.27,2104,-6668,13804,1,0,0
90788,89740.00,506.44,506.27,2152,-6700,13932,1,0,0
90822,89740.00,506.44,506.27,2044,-6708,13768,1,0,0
90855,89740.00,506.44,506.27,2072,-6764,13968,1,0,0
90917,89740.00,506.44,506.27,2028,-6716,13788,1,0,0
90950,89740.00,506.44,506.27,2068,-6644,13956,1,0,0
90993,89740.00,506.44,506.27,2056,-6684,13924,1,0,0
91026,89741.00,506.35,506.27,1968,-6548,13844,1,0,0
91059,89740.00,506.44,506.27,1944,-6780,13872,1,0,0
91092,89740.00,506.44,506.27,2000,-6640,13888,1,0,0
91125,89740.00,506.44,506.28,2072,-6672,13836,1,0,0
91158,89740.00,506.44,506.28,2036,-6704,13904,1,0,0
91192,89740.00,506.44,506.28,2148,-6684,13792,1,0,0
91229,89740.00,506.44,506.28,2020,-6772,13812,1,0,0
91261,89740.00,506.44,506.28,2012,-6720,13860,1,0,0
91295,89740.00,506.44,506.28,1996,-6700,13684,1,0,0
91328,89740.00,506.44,506.28,1980,-6652,13972,1,0,0
91361,89740.00,506.44,506.28,2048,-6668,13832,1,0,0
91395,89740.00,506.44,506.28,2108,-6732,13872,1,0,0
91427,89740.00,506.44,506.28,2048,-6716,13920,1,0,0
91460,89739.00,506.44,506.28,2008,-6736,13920,1,0,0
91494,89739.00,506.54,506.28,2092,-6720,13936,1,0,0
91527,89740.00,506.44,506.28,2052,-6652,13840,1,0,0
91564,89740.00,506.44,506.28,2032,-6640,13772,1,0,0
91596,89740.00,506.44,506.28,2200,-6784,13704,1,0,0
91630,89741.00,506.35,506.28,2084,-6572,13848,1,0,0
91663,89740.00,506.44,506.28,2016,-6704,13892,1,0,0
91697,89740.00,506.44,506.28,1972,-6720,13764,1,0,0
91729,89740.00,506.44,506.28,2076,-6732,13904,1,0,0
91762,89739.00,506.54,506.28,2040,-6752,13880,1,0,0
91796,89739.00,506.54,506.28,2056,-6660,13820,1,0,0
91829,89739.00,506.54,506.28,2032,-6624,13820,1,0,0
91862,89738.00,506.63,506.29,2020,-6624,13820,1,0,0
91898,89738.00,506.63,506.29,2076,-6684,13912,1,0,0
91932,89738.00,506.63,506.29,2072,-6616,13800,1,0,0
91965,89738.00,506.63,506.29,2004,-6784,13784,1,0,0
91998,89738.00,506.63,506.29,2128,-6704,13848,1,0,0
92032,89738.00,506.63,506.29,2048,-6620,13888,1,0,0
92064,89738.00,506.63,506.29,2048,-6692,13804,1,0,0
92097,89738.00,506.63,506.29,2040,-6640,13800,1,0,0
92131,89739.00,506.54,506.29,1960,-6632,13800,1,0,0
92164,89739.00,506.54,506.29,2068,-6688,13748,1,0,0
92200,89739.00,506.54,506.29,2192,-6748,13872,1,0,0
92233,89739.00,506.54,506.29,4868,-5124,14496,1,0,0
92267,89739.00,506.54,506.29,1552,-6056,15428,1,0,0
92300,89739.00,506.54,506.29,1224,-6916,13204,1,0,0
92333,89739.00,506.54,506.30,-92,-7604,15052,1,0,0
92366,89739.00,506.54,506.30,2424,-6284,13464,1,0,0
92399,89739.00,506.54,506.30,2532,-6748,13072,1,0,0
92457,89740.00,506.44,506.30,2072,-7356,13976,1,0,0
92490,89740.00,506.44,506.30,2216,-6484,14368,1,0,0
92524,89740.00,506.44,506.30,2080,-6716,13408,1,0,0
92561,89740.00,506.44,506.30,2616,-6200,15532,1,0,0
92594,89740.00,506.44,506.30,2664,-5952,14684,1,0,0
92626,89740.00,506.44,506.30,-1596,-14592,-9296,1,0,0
92660,89739.00,506.54,506.30,3028,-7552,11472,1,0,0
92693,89739.00,506.54,506.30,376,-7948,14608,1,0,0
92726,89739.00,506.54,506.30,2036,-6844,14060,1,0,0
92760,89739.00,506.54,506.30,1428,-5248,13956,1,0,0
92792,89740.00,506.44,506.30,2004,-5808,14816,1,0,0
92825,89740.00,506.44,506.30,3920,-6412,12820,1,0,0
92859,89740.00,506.44,506.30,1892,-6032,15116,1,0,0
92904,89740.00,506.44,506.30,2264,-6248,15336,1,0,0
92938,89739.00,506.54,506.30,4444,-5800,13640,1,0,0
92971,89739.00,506.54,506.30,3272,-5252,14752,1,0,0
93003,89739.00,506.54,506.30,2272,-6012,14008,1,0,0
93036,89739.00,506.54,506.31,2696,-6700,13124,1,0,0
93070,89738.00,506.63,506.31,2076,-4740,14848,1,0,0
93103,89739.00,506.54,506.31,2420,-4996,13164,1,0,0
93135,89739.00,506.54,506.31,2312,-6032,12392,1,0,0
93169,89739.00,506.54,506.31,2652,-4656,15512,1,0,0
93205,89739.00,506.54,506.31,1816,-4684,14504,1,0,0
93239,89740.00,506.44,506.31,1256,-5056,13300,1,0,0
93272,89740.00,506.44,506.31,1888,-4852,14400,1,0,0
93304,89739.00,506.54,506.31,2124,-4640,14456,1,0,0
93337,89740.00,506.44,506.31,1380,-4912,13724,1,0,0
93370,89739.00,506.54,506.31,2088,-4948,14592,1,0,0
93403,89738.00,506.63,506.31,1656,-4772,14528,1,0,0
93435,89738.00,506.63,506.31,1416,-4528,15112,1,0,0
93468,89738.00,506.63,506.31,1260,-5484,15276,1,0,0
93502,89738.00,506.63,506.31,-404,-4232,16252,1,0,0
93538,89737.00,506.72,506.32,2660,-7408,14568,1,0,0
93571,89737.00,506.72,506.32,6852,-7496,9208,1,0,0
93603,89737.00,506.72,506.32,3592,-8432,13880,1,0,0
93637,89737.00,506.72,506.32,5228,-5696,11196,1,0,0
93670,89737.00,506.72,506.32,4352,-4280,13992,1,0,0
93703,89736.00,506.82,506.32,-440,-7236,5160,1,0,0
93735,89737.00,506.72,506.32,4456,-8336,9440,1,0,0
93768,89737.00,506.72,506.32,6732,-8264,10952,1,0,0
93801,89737.00,506.72,506.32,8972,-6380,16408,1,0,0
93834,89737.00,506.72,506.33,4608,-3556,13268,1,0,0
93871,89736.00,506.82,506.33,2368,-5124,13184,1,0,0
93904,89736.00,506.82,506.33,6240,-4200,9972,1,0,0
93937,89736.00,506.82,506.33,5196,-5960,16044,1,0,0
93971,89736.00,506.82,506.33,4940,-6008,14644,1,0,0
94030,89736.00,506.82,506.33,5588,-5008,14664,1,0,0
94063,89737.00,506.72,506.33,5012,-4452,15040,1,0,0
94097,89737.00,506.72,506.34,4996,-4492,12608,1,0,0
94130,89736.00,506.82,506.34,5892,-6856,14608,1,0,0
94163,89736.00,506.82,506.34,5816,-5304,12500,1,0,0
94200,89736.00,506.82,506.34,6084,-5484,12660,1,0,0
94234,89736.00,506.82,506.34,5728,-5760,12560,1,0,0
94267,89736.00,506.82,506.34,5344,-5824,13692,1,0,0
94301,89736.00,506.82,506.34,5976,-6508,13020,1,0,0
94333,89737.00,506.72,506.35,5508,-5544,13832,1,0,0
94367,89736.00,506.82,506.35,6336,-6040,14256,1,0,0
94400,89736.00,506.82,506.35,5148,-5200,11648,1,0,0
94434,89736.00,506.82,506.35,5588,-5916,12840,1,0,0
94467,89736.00,506.82,506.35,4364,-5936,14660,1,0,0
94500,89735.00,506.91,506.35,5088,-5624,14068,1,0,0
94537,89735.00,506.91,506.35,5264,-7564,13472,1,0,0
94571,89735.00,506.91,506.36,5436,-6420,14076,1,0,0
94604,89735.00,506.91,506.36,5396,-3848,12456,1,0,0
94638,89734.00,507.00,506.36,6772,-7888,12896,1,0,0
94670,89734.00,507.00,506.36,4152,-5692,12908,1,0,0
94704,89734.00,507.00,506.36,6252,-3796,14652,1,0,0
94737,89734.00,507.00,506.37,6052,-6468,14416,1,0,0
94771,89733.00,507.09,506.37,5320,-5696,13388,1,0,0
94803,89733.00,507.09,506.37,4464,-4512,11208,1,0,0
94846,89733.00,507.09,506.37,5516,-7196,14012,1,0,0
94883,89733.00,507.09,506.38,4132,-4540,12808,1,0,0
94916,89734.00,507.00,506.38,5708,-5952,14028,1,0,0
94950,89733.00,507.09,506.38,4384,-5696,14884,1,0,0
94983,89733.00,507.09,506.38,4424,-6096,13356,1,0,0
95016,89733.00,507.09,506.39,3832,-3900,13572,1,0,0
95049,89733.00,507.09,506.39,9420,-2932,11584,1,0,0
95083,89733.00,507.09,506.39,3828,-5104,13384,1,0,0
95116,89733.00,507.09,506.39,5300,-5164,10272,1,0,0
95150,89732.00,507.19,506.40,4204,-6296,13680,1,0,0
95186,89732.00,507.19,506.40,4756,-6544,12076,1,0,0
95220,89733.00,507.09,506.40,5040,-9928,17060,1,0,0
95253,89733.00,507.09,506.41,3400,-6620,16216,1,0,0
95287,89732.00,507.19,506.41,3076,-5828,14732,1,0,0
95320,89731.00,507.28,506.41,4060,-7092,12472,1,0,0
95353,89732.00,507.19,506.42,3444,-6856,9752,1,0,0
95386,89732.00,507.19,506.42,2792,-6292,11088,1,0,0
95420,89731.00,507.28,506.42,7408,-11656,9592,1,0,0
95453,89730.00,507.37,506.43,4552,-7116,13640,1,0,0
95486,89730.00,507.37,506.43,2580,-7096,13332,1,0,0
95523,89730.00,507.37,506.44,2272,-7664,13732,1,0,0
95583,89730.00,507.37,506.44,3520,-8804,13072,1,0,0
95616,89729.00,507.47,506.44,2580,-5596,11980,1,0,0
95649,89729.00,507.47,506.45,2492,-6664,14488,1,0,0
95682,89729.00,507.47,506.45,3512,-10088,14204,1,0,0
95716,89729.00,507.47,506.46,1196,-5548,12768,1,0,0
95749,89729.00,507.47,506.46,4236,-8108,14204,1,0,0
95782,89729.00,507.47,506.47,5208,-10396,13260,1,0,0
95815,89728.00,507.56,506.47,2548,-4560,13956,1,0,0
95849,89728.00,507.56,506.48,3112,-7460,16896,1,0,0
95886,89728.00,507.56,506.49,5600,-9688,18476,1,0,0
95920,89729.00,507.47,506.49,4380,-9720,10504,1,0,0
95952,89728.00,507.56,506.50,2412,-5924,11408,1,0,0
95986,89728.00,507.56,506.50,4768,-6732,14932,1,0,0
96019,89728.00,507.56,506.51,5668,-10356,11072,1,0,0
96053,89728.00,507.56,506.51,2920,-5732,9976,1,0,0
96086,89728.00,507.56,506.52,4828,-6580,12440,1,0,0
96119,89727.00,507.65,506.53,5120,-9180,17604,1,0,0
96152,89727.00,507.65,506.53,2780,-11480,7432,1,0,0
96189,89728.00,507.56,506.54,2804,-8296,14936,1,0,0
96223,89727.00,507.65,506.54,5948,-9404,12728,1,0,0
96256,89728.00,507.56,506.55,2224,-10304,8380,1,0,0
96289,89728.00,507.56,506.56,2280,-7752,14572,1,0,0
96322,89728.00,507.56,506.56,7168,-11536,15480,1,0,0
96356,89728.00,507.56,506.57,2568,-7144,10640,1,0,0
96389,89728.00,507.56,506.58,1756,-5792,11520,1,0,0
96422,89729.00,507.47,506.58,7632,-9328,14056,1,0,0
96455,89729.00,507.47,506.59,5264,-8300,13048,1,0,0
96489,89729.00,507.47,506.59,3844,-7188,11636,1,0,0
96526,89729.00,507.47,506.60,4576,-8800,13280,1,0,0
96559,89728.00,507.56,506.61,4620,-9108,12908,1,0,0
96592,89727.00,507.65,506.61,3068,-8464,13208,1,0,0
96625,89727.00,507.65,506.62,4900,-8348,13280,1,0,0
96659,89727.00,507.65,506.63,5444,-8416,11348,1,0,0
96692,89726.00,507.74,506.64,4716,-6996,11112,1,0,0
96726,89726.00,507.74,506.64,4044,-7844,11044,1,0,0
96758,89727.00,507.65,506.65,4084,-8500,11268,1,0,0
96800,89727.00,507.65,506.66,2408,-8796,13776,1,0,0
96834,89727.00,507.65,506.67,4388,-6916,11476,1,0,0
96871,89727.00,507.65,506.67,5008,-8304,12008,1,0,0
96905,89726.00,507.74,506.68,3520,-8716,13580,1,0,0
96937,89726.00,507.74,506.69,5184,-8296,12688,1,0,0
96970,89726.00,507.74,506.70,4636,-7552,11508,1,0,0
97004,89726.00,507.74,506.71,5168,-8756,12980,1,0,0
97037,89727.00,507.65,506.72,5224,-9148,12156,1,0,0
97071,89726.00,507.74,506.72,4120,-8960,11048,1,0,0
97130,89726.00,507.74,506.73,4056,-9040,11668,1,0,0
97163,89727.00,507.74,506.74,4552,-8812,12264,1,0,0
97200,89726.00,507.74,506.75,5852,-7792,12012,1,0,0
97233,89726.00,507.74,506.76,5248,-6792,10968,1,0,0
97266,89726.00,507.74,506.77,7288,-9152,10348,1,0,0
97300,89726.00,507.74,506.78,7432,-9928,7860,1,0,0
97333,89725.00,507.84,506.78,1096,-11432,13396,1,0,0
97367,89726.00,507.74,506.79,9568,-12896,5448,1,0,0
97399,89725.00,507.84,506.80,6504,-9696,9744,1,0,0
97432,89724.00,507.93,506.81,8772,-12504,8496,1,0,0
97466,89724.00,507.93,506.82,8884,-12324,7564,1,0,0
97499,89724.00,507.93,506.83,8896,-12088,6236,1,0,0
97536,89723.00,508.02,506.85,9048,-12140,5128,1,0,0
97569,89723.00,508.02,506.86,8860,-12896,2728,1,0,0
97602,89723.00,508.02,506.87,9584,-12640,2284,1,0,0
97636,89722.00,508.12,506.88,7888,-10472,4048,1,0,0
97669,89722.00,508.12,506.89,8808,-10616,3396,1,0,0
97702,89722.00,508.12,506.91,10268,-12184,2120,1,0,0
97735,89722.00,508.12,506.92,10952,-12176,4160,1,0,0
97769,89722.00,508.12,506.93,11500,-11724,3232,1,0,0
97802,89722.00,508.12,506.94,10676,-11380,1472,1,0,0
97839,89722.00,508.12,506.96,11224,-11716,1180,1,0,0
97872,89722.00,508.12,506.97,10444,-12564,964,1,0,0
97905,89722.00,508.12,506.98,10984,-12184,704,1,0,0
97939,89722.00,508.12,507.00,10236,-11064,844,1,0,0
97972,89721.00,508.21,507.01,11164,-11140,2112,1,0,0
98004,89721.00,508.21,507.02,13240,-10936,484,1,0,0
98038,89721.00,508.21,507.04,12416,-11252,-256,1,0,0
98071,89721.00,508.21,507.05,11152,-11392,1932,1,0,0
98105,89721.00,508.21,507.06,12028,-10528,1756,1,0,0
98138,89721.00,508.21,507.08,11748,-10584,912,1,0,0
98174,89721.00,508.21,507.09,12596,-11444,160,1,0,0
98208,89720.00,508.30,507.11,11388,-11336,708,1,0,0
98241,89720.00,508.30,507.12,12508,-9792,1224,1,0,0
98275,89720.00,508.30,507.14,14064,-11076,-396,1,0,0
98308,89719.00,508.40,507.15,9676,-11256,4568,1,0,0
98341,89720.00,508.30,507.17,12004,-10476,4852,1,0,0
98374,89720.00,508.30,507.18,11472,-11216,4320,1,0,0
98407,89720.00,508.30,507.20,10756,-10512,3392,1,0,0
98441,89720.00,508.30,507.21,10896,-9908,4552,1,0,0
98473,89720.00,508.30,507.23,11228,-8980,5204,1,0,0
98510,89720.00,508.30,507.24,12444,-10500,3276,1,0,0
98544,89720.00,508.30,507.25,11224,-9504,4488,1,0,0
98577,89720.00,508.30,507.27,11620,-9284,5244,1,0,0
98611,89720.00,508.30,507.28,13048,-9984,3516,1,0,0
98670,89720.00,508.30,507.30,11692,-7904,6796,1,0,0
98703,89720.00,508.30,507.31,19332,-6892,3568,1,0,0
98745,89720.00,508.30,507.33,9736,-8396,5892,1,0,0
98779,89720.00,508.30,507.34,10812,-7988,7868,1,0,0
98811,89720.00,508.30,507.35,11308,-9340,7536,1,0,0
98848,89720.00,508.30,507.37,11368,-8636,8192,1,0,0
98881,89720.00,508.30,507.38,11140,-8556,10144,1,0,0
98915,89720.00,508.30,507.39,11744,-7164,8188,1,0,0
98948,89719.00,508.40,507.41,11012,-6632,9536,1,0,0
98981,89719.00,508.40,507.42,11756,-8248,10248,1,0,0
99014,89719.00,508.40,507.44,12396,-5636,9348,1,0,0
99048,89719.00,508.40,507.45,9560,-5636,10532,1,0,0
99081,89719.00,508.40,507.46,11288,-7788,9760,1,0,0
99113,89719.00,508.40,507.48,9360,-5672,11228,1,0,0
99147,89718.00,508.49,507.49,8584,-4052,10788,1,0,0
99184,89719.00,508.40,507.51,10044,-6220,11000,1,0,0
99218,89718.00,508.49,507.52,8760,-4720,10684,1,0,0
99251,89718.00,508.49,507.54,9436,-4328,12980,1,0,0
99283,89718.00,508.49,507.55,8492,-4900,13420,1,0,0
99317,89718.00,508.49,507.56,8180,-3564,12952,1,0,0
99350,89718.00,508.49,507.58,7256,-4508,12200,1,0,0
99383,89718.00,508.49,507.59,8984,-3932,13048,1,0,0
99417,89718.00,508.49,507.61,9168,-2752,9912,1,0,0
99449,89718.00,508.49,507.62,7852,-3224,11540,1,0,0
99483,89718.00,508.49,507.63,10444,-4476,13360,1,0,0
99520,89718.00,508.49,507.65,6904,-4124,12284,1,0,0
99553,89718.00,508.49,507.66,6852,-3288,14468,1,0,0
99587,89717.00,508.58,507.67,5976,-3492,15436,1,0,0
99619,89717.00,508.58,507.69,6656,-4192,14756,1,0,0
99652,89717.00,508.58,507.70,6660,-4056,14288,1,0,0
99686,89717.00,508.58,507.71,6544,-3968,13984,1,0,0
99719,89718.00,508.49,507.73,3404,-1252,14592,1,0,0
99752,89717.00,508.58,507.74,660,-1552,18240,1,0,0
99785,89718.00,508.49,507.75,6276,-6024,14320,1,0,0
99822,89718.00,508.49,507.76,5992,-4456,12908,1,0,0
99855,89718.00,508.49,507.77,5792,-4368,13880,1,0,0
99889,89718.00,508.49,507.78,6096,-5020,13044,1,0,0
99921,89717.00,508.58,507.80,6216,-4700,13000,1,0,0
99955,89717.00,508.58,507.81,6744,-5300,13428,1,0,0
99988,89717.00,508.58,507.82,5524,-4492,12492,1,0,0
100021,89716.00,508.67,507.83,5928,-4916,14332,1,0,0
100055,89716.00,508.67,507.85,6204,-5504,13412,1,0,0
100087,89716.00,508.67,507.86,5088,-4164,14092,1,0,0
100121,89716.00,508.67,507.87,5988,-5264,13812,1,0,0
100158,89716.00,508.67,507.88,5640,-4332,12660,1,0,0
100217,89716.00,508.67,507.90,6056,-5760,14180,1,0,0
100250,89716.00,508.67,507.91,5324,-4696,13264,1,0,0
100283,89716.00,508.67,507.92,5956,-4624,14448,1,0,0
100317,89716.00,508.67,507.93,6152,-4696,13360,1,0,0
100349,89716.00,508.67,507.94,4460,-3640,13640,1,0,0
100383,89715.00,508.77,507.96,6816,-5624,13836,1,0,0
100416,89715.00,508.77,507.97,5612,-4612,13748,1,0,0
100450,89715.00,508.77,507.98,5828,-5084,13988,1,0,0
100487,89714.00,508.86,508.00,5816,-5080,13528,1,0,0
100519,89714.00,508.86,508.01,4820,-4080,13628,1,0,0
100553,89714.00,508.86,508.02,5140,-4784,13708,1,0,0
100586,89714.00,508.86,508.04,4776,-4632,13772,1,0,0
100619,89714.00,508.86,508.05,2996,-4768,13784,1,0,0
100661,89715.00,508.77,508.06,7760,-8472,12216,1,0,0
100695,89714.00,508.86,508.07,5768,-5172,15972,1,0,0
100727,89714.00,508.86,508.08,6920,-6436,13432,1,0,0
100761,89714.00,508.86,508.10,1812,-3348,17480,1,0,0
100794,89714.00,508.86,508.11,6092,-5168,13512,1,0,0
100831,89714.00,508.86,508.12,5568,-5160,13884,1,0,0
100865,89713.00,508.95,508.13,5428,-4620,13784,1,0,0
100897,89713.00,508.95,508.15,6248,-4048,13428,1,0,0
100931,89713.00,508.95,508.16,6844,-4384,13580,1,0,0
100964,89713.00,508.95,508.17,5588,-5356,12940,1,0,0
100997,89713.00,508.95,508.18,7176,-5964,11644,1,0,0
101030,89713.00,508.95,508.20,5940,-4564,14412,1,0,0
101063,89713.00,508.95,508.21,5224,-5256,13296,1,0,0
101097,89713.00,508.95,508.22,5336,-4920,13184,1,0,0
101134,89713.00,508.95,508.23,4676,-5324,12980,1,0,0
101167,89713.00,508.95,508.24,5432,-5548,14148,1,0,0
101199,89713.00,508.95,508.25,6684,-6408,12388,1,0,0
101233,89713.00,508.95,508.26,5120,-4820,12892,1,0,0
101266,89713.00,508.95,508.27,3780,-2716,18848,1,0,0
101300,89712.00,509.05,508.29,5360,-5848,12948,1,0,0
101332,89712.00,509.05,508.30,4536,-3404,13140,1,0,0
101365,89712.00,509.05,508.31,5736,-4052,14600,1,0,0
101399,89713.00,508.95,508.32,7392,-6404,13140,1,0,0
101432,89713.00,508.95,508.33,5560,-4568,14208,1,0,0
101469,89712.00,509.05,508.34,6336,-5312,13028,1,0,0
101502,89712.00,509.05,508.35,5964,-4640,13448,1,0,0
101535,89712.00,509.05,508.36,5852,-5136,13376,1,0,0
101569,89712.00,509.05,508.37,4504,-3888,14044,1,0,0
101602,89712.00,509.05,508.38,6844,-6360,14544,1,0,0
101635,89712.00,509.05,508.39,3452,-3704,12916,1,0,0
101668,89712.00,509.05,508.40,4524,-2780,14668,1,0,0
101701,89712.00,509.05,508.41,7164,-6780,14048,1,0,0
101734,89711.00,509.14,508.42,3900,-3096,12156,1,0,0
101797,89712.00,509.05,508.43,5056,-3836,12148,1,0,0
101830,89712.00,509.05,508.44,7116,-6288,12160,1,0,0
101864,89711.00,509.14,508.45,2656,-2740,14540,1,0,0
101897,89711.00,509.14,508.46,3800,-4928,16356,1,0,0
101929,89710.00,509.23,508.47,3440,-3560,13684,1,0,0
101963,89710.00,509.23,508.48,4592,-4996,13020,1,0,0
101996,89710.00,509.23,508.50,5096,-4204,13840,1,0,0
102030,89710.00,509.23,508.51,4892,-4984,13216,1,0,0
102063,89710.00,509.23,508.52,4456,-2248,13320,1,0,0
102095,89710.00,509.23,508.53,6384,-5200,14336,1,0,0
102132,89710.00,509.23,508.54,3248,-3236,14288,1,0,0
102166,89709.00,509.32,508.55,5960,-5092,14104,1,0,0
102199,89709.00,509.32,508.56,5704,-6040,14408,1,0,0
102233,89710.00,509.23,508.57,3616,-3532,14592,1,0,0
102265,89709.00,509.32,508.58,5548,-4444,12372,1,0,0
102298,89709.00,509.32,508.59,2536,-4104,15836,1,0,0
102332,89709.00,509.32,508.60,4956,-4824,15528,1,0,0
102365,89709.00,509.32,508.62,3392,-3408,12896,1,0,0
102397,89709.00,509.32,508.63,3344,-1628,14200,1,0,0
102435,89709.00,509.32,508.64,3888,-4288,13528,1,0,0
102468,89709.00,509.32,508.65,3804,-2428,12200,1,0,0
102501,89709.00,509.32,508.66,3900,-3256,13920,1,0,0
102535,89709.00,509.32,508.67,4952,-4984,13476,1,0,0
102567,89709.00,509.32,508.68,4732,-5596,15896,1,0,0
102609,89709.00,509.32,508.69,4632,-3268,13372,1,0,0
102642,89710.00,509.23,508.69,4996,-4288,13188,1,0,0
102676,89710.00,509.23,508.70,3340,-3132,14620,1,0,0
102709,89710.00,509.23,508.71,4268,-4908,15064,1,0,0
102743,89709.00,509.32,508.72,4092,-4960,15120,1,0,0
102779,89709.00,509.32,508.73,4464,-4076,14348,1,0,0
102812,89709.00,509.32,508.74,4244,-4792,15888,1,0,0
102845,89710.00,509.23,508.74,3812,-4040,15796,1,0,0
102879,89710.00,509.23,508.75,4044,-4356,14328,1,0,0
102912,89710.00,509.23,508.76,3540,-4420,13516,1,0,0
102944,89710.00,509.23,508.76,3100,-4100,12572,1,0,0
102978,89709.00,509.32,508.77,4244,-4324,13976,1,0,0
103011,89709.00,509.32,508.78,4236,-4640,13724,1,0,0
103044,89709.00,509.32,508.79,4624,-4884,12892,1,0,0
103081,89708.00,509.32,508.79,4880,-4512,14260,1,0,0
103114,89708.00,509.42,508.80,3060,-4984,13988,1,0,0
103147,89708.00,509.42,508.81,4668,-4624,13548,1,0,0
103181,89707.00,509.51,508.82,4140,-3820,14364,1,0,0
103214,89707.00,509.51,508.83,2704,-5532,15412,1,0,0
103246,89708.00,509.42,508.84,3976,-5080,14116,1,0,0
103279,89709.00,509.32,508.85,3092,-4352,15368,1,0,0
103339,89709.00,509.32,508.85,3952,-4184,14472,1,0,0
103372,89709.00,509.32,508.86,3600,-4232,14132,1,0,0
103405,89709.00,509.32,508.87,3636,-5132,13728,1,0,0
103442,89709.00,509.32,508.87,3624,-4432,14984,1,0,0
103475,89709.00,509.32,508.88,2948,-4484,12996,1,0,0
103508,89709.00,509.32,508.88,3600,-3672,14544,1,0,0
103541,89708.00,509.42,508.89,3280,-5748,13872,1,0,0
103574,89708.00,509.42,508.90,2200,-4184,15796,1,0,0
103608,89707.00,509.51,508.91,5592,-4528,14292,1,0,0
103641,89707.00,509.51,508.91,3116,-5148,13656,1,0,0
103673,89707.00,509.51,508.92,2404,-4404,15036,1,0,0
103707,89708.00,509.42,508.93,4912,-3764,13748,1,0,0
103744,89708.00,509.42,508.94,3720,-4900,14344,1,0,0
103777,89708.00,509.42,508.94,3264,-5808,14480,1,0,0
103810,89708.00,509.42,508.95,3480,-4812,14264,1,0,0
103842,89708.00,509.42,508.95,4060,-3824,14044,1,0,0
103875,89708.00,509.42,508.96,4088,-4288,15160,1,0,0
103908,89708.00,509.42,508.97,5936,-7232,13932,1,0,0
103941,89708.00,509.42,508.97,3896,-4908,13796,1,0,0
103974,89709.00,509.32,508.98,4672,-2388,13432,1,0,0
104007,89709.00,509.32,508.98,2436,-2912,12412,1,0,0
104040,89709.00,509.32,508.99,4588,-5380,13244,1,0,0
104159,89708.00,509.42,508.99,3924,-4204,14340,1,0,0
104192,89708.00,509.42,509.00,3512,-3748,14512,1,0,0
104224,89708.00,509.42,509.00,3784,-4320,14348,1,0,0
104257,89707.00,509.51,509.01,3932,-4804,14252,1,0,0
104290,89707.00,509.51,509.02,2180,-5320,14776,1,0,0
104323,89707.00,509.51,509.02,3336,-5416,14464,1,0,0
104356,89707.00,509.51,509.03,4220,-4664,13852,1,0,0
104389,89707.00,509.51,509.03,3464,-4056,13564,1,0,0
104422,89707.00,509.51,509.04,3456,-4476,14464,1,0,0
104459,89707.00,509.51,509.05,3796,-5296,14424,1,0,0
104492,89707.00,509.51,509.05,4232,-5268,13772,1,0,0
104525,89707.00,509.51,509.06,3720,-5224,14048,1,0,0
104567,89707.00,509.51,509.06,3412,-4712,15168,1,0,0
104601,89707.00,509.51,509.07,3644,-4652,13528,1,0,0
104634,89706.00,509.60,509.07,3244,-3768,14420,1,0,0
104668,89706.00,509.60,509.08,4424,-5024,13664,1,0,0
104701,89706.00,509.60,509.09,3436,-5184,14308,1,0,0
104734,89706.00,509.60,509.09,3780,-5272,14164,1,0,0
104768,89706.00,509.60,509.10,3320,-4792,14412,1,0,0
104805,89706.00,509.60,509.11,3116,-4560,14928,1,0,0
104839,89706.00,509.60,509.11,4416,-5616,14124,1,0,0
104871,89707.00,509.51,509.12,3628,-5056,14360,1,0,0
104905,89706.00,509.60,509.12,3724,-4584,14696,1,0,0
104965,89706.00,509.60,509.13,3620,-4996,13552,1,0,0
104998,89706.00,509.60,509.13,3888,-4196,13076,1,0,0
105032,89707.00,509.51,509.14,3144,-4416,13992,1,0,0
105065,89707.00,509.51,509.14,3168,-4948,14752,1,0,0
105099,89707.00,509.51,509.15,4168,-5428,12848,1,0,0
105136,89707.00,509.51,509.15,3764,-5324,14296,1,0,0
105169,89707.00,509.51,509.16,3520,-4648,14096,1,0,0
105202,89707.00,509.51,509.16,3352,-5352,15020,1,0,0
105236,89707.00,509.51,509.16,2024,-5596,14824,1,0,0
105269,89707.00,509.51,509.17,2320,-4100,14456,1,0,0
105303,89707.00,509.51,509.17,4280,-6148,14092,1,0,0
105335,89707.00,509.51,509.18,3852,-4308,13196,1,0,0
105369,89707.00,509.51,509.18,3848,-5572,13148,1,0,0
105403,89708.00,509.42,509.18,3936,-5760,13748,1,0,0
105436,89707.00,509.51,509.19,4028,-5748,14656,1,0,0
105473,89707.00,509.51,509.19,2496,-4956,15276,1,0,0
105506,89706.00,509.60,509.19,3260,-5364,15384,1,0,0
105540,89705.00,509.70,509.20,3708,-5268,13992,1,0,0
105573,89705.00,509.70,509.20,4048,-5980,13996,1,0,0
105607,89705.00,509.70,509.21,3508,-4932,11424,1,0,0
105639,89705.00,509.70,509.22,5808,-6524,10700,1,0,0
105673,89705.00,509.70,509.22,6508,-7888,12936,1,0,0
105706,89705.00,509.70,509.23,6004,-7068,14764,1,0,0
105740,89705.00,509.70,509.23,5808,-6372,13964,1,0,0
105777,89705.00,509.70,509.24,6008,-7016,13968,1,0,0
105810,89705.00,509.70,509.24,6880,-7068,13972,1,0,0
105843,89705.00,509.70,509.25,8740,-7780,11012,1,0,0
105877,89705.00,509.70,509.25,7064,-7324,9496,1,0,0
105910,89705.00,509.70,509.26,6800,-6496,12208,1,0,0
105944,89706.00,509.60,509.26,13444,-7104,8680,1,0,0
105976,89706.00,509.60,509.26,13196,-6264,6540,1,0,0
106010,89706.00,509.60,509.27,10216,-6836,7020,1,0,0
106044,89705.00,509.70,509.27,11692,-7296,5876,1,0,0
106077,89705.00,509.70,509.28,13628,-7036,4060,1,0,0
106107,89705.00,509.70,509.28,14624,-7468,2808,1,0,0
106141,89705.00,509.70,509.29,13572,-7116,2944,1,0,0
106174,89705.00,509.70,509.29,14336,-6312,2812,1,0,0
106208,89705.00,509.70,509.29,14300,-6424,3136,1,0,0
106241,89705.00,509.70,509.30,14828,-7540,2388,1,0,0
106274,89705.00,509.70,509.30,14828,-7324,3224,1,0,0
106307,89705.00,509.70,509.31,14228,-7272,3072,1,0,0
106341,89705.00,509.70,509.31,14148,-7060,2884,1,0,0
106375,89706.00,509.60,509.31,13964,-7144,2536,1,0,0
106412,89705.00,509.70,509.32,14524,-6696,1864,1,0,0
106444,89705.00,509.70,509.32,14300,-7376,2616,1,0,0
106505,89705.00,509.70,509.33,14420,-7416,2548,1,0,0
106547,89705.00,509.70,509.33,13744,-6940,1704,1,0,0
106580,89706.00,509.60,509.33,14016,-7916,1732,1,0,0
106613,89705.00,509.70,509.34,10796,-7364,4336,1,0,0
106647,89705.00,509.70,509.34,11744,-7888,8160,1,0,0
106680,89705.00,509.70,509.34,9952,-8244,9488,1,0,0
106714,89705.00,509.70,509.35,5748,-4996,12392,1,0,0
106750,89705.00,509.70,509.35,6280,-3828,14676,1,0,0
106784,89705.00,509.70,509.35,4400,-4128,16528,1,0,0
106817,89706.00,509.60,509.36,4680,-5220,15972,1,0,0
106851,89706.00,509.60,509.36,5960,-6664,14200,1,0,0
106884,89706.00,509.60,509.36,4824,-6468,13752,1,0,0
106917,89705.00,509.70,509.37,4644,-5508,13628,1,0,0
106950,89705.00,509.70,509.37,4836,-6112,13892,1,0,0
106984,89705.00,509.70,509.37,5700,-6284,12532,1,0,0
107017,89705.00,509.70,509.37,3000,-5216,16192,1,0,0
107051,89705.00,509.70,509.38,3792,-5312,14780,1,0,0
107087,89705.00,509.70,509.38,4308,-5884,14772,1,0,0
107121,89705.00,509.70,509.38,3968,-4972,14172,1,0,0
107154,89705.00,509.70,509.39,3956,-4472,13332,1,0,0
107188,89705.00,509.70,509.39,3776,-4336,13524,1,0,0
107220,89706.00,509.60,509.39,2992,-3460,15336,1,0,0
107254,89706.00,509.60,509.39,3572,-4028,14308,1,0,0
107287,89705.00,509.70,509.40,3056,-4240,15044,1,0,0
107321,89705.00,509.70,509.40,3464,-4228,16184,1,0,0
107354,89705.00,509.70,509.40,4648,-4444,14944,1,0,0
107390,89705.00,509.70,509.41,3864,-2972,13168,1,0,0
107424,89705.00,509.70,509.41,4908,-3728,13160,1,0,0
107457,89705.00,509.70,509.41,4820,-5976,14996,1,0,0
107491,89705.00,509.70,509.41,3688,-5072,14748,1,0,0
107524,89705.00,509.70,509.42,3964,-4056,13016,1,0,0
107557,89704.00,509.79,509.42,4736,-5380,13972,1,0,0
107590,89704.00,509.79,509.42,5036,-5280,13708,1,0,0
107624,89704.00,509.79,509.43,3652,-5344,13644,1,0,0
107657,89704.00,509.79,509.43,5768,-5188,12684,1,0,0
107691,89704.00,509.79,509.43,5048,-5172,13484,1,0,0
107727,89704.00,509.79,509.44,4172,-4892,14952,1,0,0
107761,89705.00,509.70,509.44,4416,-4912,14220,1,0,0
107794,89704.00,509.79,509.44,4304,-4544,13236,1,0,0
107828,89704.00,509.79,509.45,3400,-5052,13488,1,0,0
107860,89704.00,509.79,509.45,4424,-5348,13824,1,0,0
107894,89703.00,509.88,509.45,4756,-5540,14140,1,0,0
107927,89703.00,509.88,509.46,4156,-5420,14104,1,0,0
107961,89703.00,509.88,509.46,4856,-5736,14048,1,0,0
107994,89703.00,509.88,509.46,5136,-6096,13888,1,0,0
108057,89704.00,509.79,509.47,4232,-5644,13376,1,0,0
108091,89704.00,509.79,509.47,4628,-5844,13444,1,0,0
108124,89703.00,509.88,509.47,4804,-6116,13680,1,0,0
108157,89703.00,509.88,509.48,4256,-5464,13156,1,0,0
108190,89703.00,509.88,509.48,4536,-6432,14320,1,0,0
108224,89703.00,509.88,509.48,4436,-6968,14664,1,0,0
108257,89703.00,509.88,509.49,3440,-7048,15412,1,0,0
108291,89703.00,509.88,509.49,4108,-7288,15848,1,0,0
108323,89703.00,509.88,509.49,4804,-6232,14992,1,0,0
108357,89703.00,509.88,509.50,3824,-4124,13312,1,0,0
108394,89703.00,509.88,509.50,4068,-3192,14312,1,0,0
108427,89702.00,509.88,509.51,3216,-5608,14484,1,0,0
108470,89702.00,509.98,509.51,-856,-2752,17512,1,0,0
108503,89702.00,509.98,509.51,7124,-428,12708,1,0,0
108535,89703.00,509.88,509.52,4432,48,13540,1,0,0
108569,89703.00,509.88,509.52,6100,-908,12184,1,0,0
108602,89703.00,509.88,509.52,4236,-388,14268,1,0,0
108636,89703.00,509.88,509.53,2852,-232,17344,1,0,0
108668,89702.00,509.98,509.53,2876,352,15656,1,0,0
108701,89702.00,509.98,509.54,4360,-48,14852,1,0,0
108739,89703.00,509.88,509.54,4276,-420,14012,1,0,0
108772,89703.00,509.88,509.54,4120,-592,14432,1,0,0
108805,89703.00,509.88,509.54,4620,-2296,15820,1,0,0
108838,89702.00,509.98,509.55,4924,444,13524,1,0,0
108871,89703.00,509.88,509.55,4408,1856,13020,1,0,0
108905,89703.00,509.88,509.55,4040,1064,16104,1,0,0
108938,89703.00,509.88,509.56,3788,872,15400,1,0,0
108972,89703.00,509.88,509.56,4396,1208,13220,1,0,0
109004,89703.00,509.88,509.56,4188,1296,14756,1,0,0
109041,89703.00,509.88,509.57,4052,1040,15600,1,0,0
109075,89703.00,509.88,509.57,4044,1564,14500,1,0,0
109108,89703.00,509.88,509.57,5328,1304,14392,1,0,0
109140,89703.00,509.88,509.57,4468,1672,15036,1,0,0
109174,89703.00,509.88,509.58,3484,1744,15476,1,0,0
109207,89703.00,509.88,509.58,4012,72,15892,1,0,0
109241,89702.00,509.98,509.58,3796,608,14092,1,0,0
109274,89702.00,509.98,509.59,3240,860,15116,1,0,0
109306,89701.00,510.07,509.59,3900,1196,14888,1,0,0
109340,89701.00,510.07,509.59,3716,1584,14764,1,0,0
109377,89701.00,510.07,509.60,3120,1556,15964,1,0,0
109410,89701.00,510.07,509.60,3344,968,16408,1,0,0
109444,89701.00,510.07,509.61,5308,52,13492,1,0,0
109476,89701.00,510.07,509.61,7156,1352,11012,1,0,0
109509,89701.00,510.07,509.61,3732,2672,15332,1,0,0
109570,89701.00,510.07,509.62,4344,476,13976,1,0,0
109602,89701.00,510.07,509.62,3888,-208,15036,1,0,0
109636,89701.00,510.07,509.63,3440,596,15812,1,0,0
109669,89701.00,510.07,509.63,3488,2380,15096,1,0,0
109703,89701.00,510.07,509.63,3936,1892,14332,1,0,0
109740,89701.00,510.07,509.64,4252,924,15088,1,0,0
109772,89700.00,510.16,509.64,3768,1652,15032,1,0,0
109806,89700.00,510.16,509.65,4328,732,14084,1,0,0
109839,89700.00,510.16,509.65,4532,852,15128,1,0,0
109872,89700.00,510.16,509.66,3420,1008,14468,1,0,0
109905,89699.00,510.25,509.66,3780,512,15296,1,0,0
109938,89699.00,510.25,509.67,3676,1404,14752,1,0,0
109972,89699.00,510.25,509.67,3424,2112,15348,1,0,0
110005,89699.00,510.25,509.68,4124,1024,14208,1,0,0
110042,89698.00,510.35,509.68,3696,592,14928,1,0,0
110074,89698.00,510.35,509.69,4164,1152,15436,1,0,0
110108,89698.00,510.35,509.69,1340,1584,15148,1,0,0
110141,89698.00,510.35,509.70,3780,1384,14984,1,0,0
110175,89699.00,510.25,509.70,3680,388,15428,1,0,0
110208,89699.00,510.25,509.71,4260,1152,13696,1,0,0
110240,89700.00,510.16,509.71,2836,2304,16068,1,0,0
110274,89700.00,510.16,509.72,3624,1692,15200,1,0,0
110307,89699.00,510.25,509.72,3736,1512,15980,1,0,0
110341,89699.00,510.25,509.73,3492,1164,14812,1,0,0
110377,89699.00,510.25,509.73,3244,740,15104,1,0,0
110419,89698.00,510.35,509.74,904,2196,17396,1,0,0
110452,89699.00,510.25,509.74,4312,840,13828,1,0,0
110486,89699.00,510.25,509.75,3116,1076,15844,1,0,0
110519,89699.00,510.25,509.75,2948,1256,15748,1,0,0
110553,89699.00,510.25,509.76,3328,1216,14496,1,0,0
110585,89699.00,510.25,509.76,1876,1092,15412,1,0,0
110618,89698.00,510.35,509.77,3540,-52,14756,1,0,0
110652,89699.00,510.25,509.77,3248,820,14720,1,0,0
110685,89699.00,510.25,509.77,3184,1140,15148,1,0,0
110722,89698.00,510.35,509.78,3404,840,14952,1,0,0
110754,89698.00,510.35,509.79,4872,844,14152,1,0,0
110788,89697.00,510.44,509.79,6588,492,12456,1,0,0
110821,89698.00,510.35,509.80,3800,584,15412,1,0,0
110854,89698.00,510.35,509.80,4096,696,15036,1,0,0
110887,89697.00,510.44,509.81,4296,708,15140,1,0,0
110920,89697.00,510.44,509.81,5012,904,14124,1,0,0
110954,89697.00,510.44,509.82,4088,1016,15008,1,0,0
110987,89697.00,510.44,509.83,4000,1180,14488,1,0,0
111020,89697.00,510.44,509.83,3872,396,15184,1,0,0
111056,89697.00,510.44,509.84,3796,716,14244,1,0,0
111117,89697.00,510.44,509.84,3544,1400,15096,1,0,0
111150,89697.00,510.44,509.85,4000,752,15604,1,0,0
111182,89697.00,510.44,509.85,3308,836,15948,1,0,0
111216,89697.00,510.44,509.86,4376,376,15220,1,0,0
111249,89697.00,510.44,509.86,3836,480,14748,1,0,0
111282,89697.00,510.44,509.87,3712,920,15112,1,0,0
111315,89696.00,510.53,509.88,3524,1228,14800,1,0,0
111348,89696.00,510.53,509.88,4064,584,15012,1,0,0
111382,89696.00,510.53,509.89,1532,496,16664,1,0,0
111419,89696.00,510.53,509.90,9268,-968,11540,1,0,0
111452,89696.00,510.53,509.90,3424,-36,15144,1,0,0
111484,89696.00,510.53,509.91,5900,1460,11544,1,0,0
111518,89696.00,510.53,509.91,4220,1036,15352,1,0,0
111551,89696.00,510.53,509.92,4600,904,14152,1,0,0
111584,89696.00,510.53,509.93,4384,372,15064,1,0,0
111618,89696.00,510.53,509.93,4304,92,15088,1,0,0
111650,89696.00,510.53,509.94,4212,388,15228,1,0,0
111683,89696.00,510.53,509.94,4080,444,15196,1,0,0
111720,89696.00,510.53,509.95,4088,460,15296,1,0,0
111754,89696.00,510.53,509.96,4424,-600,15628,1,0,0
111787,89696.00,510.53,509.96,3892,-260,15484,1,0,0
111819,89696.00,510.53,509.97,5336,-1100,15192,1,0,0
111853,89696.00,510.53,509.97,5320,-1232,15688,1,0,0
111886,89696.00,510.53,509.98,5096,-960,15724,1,0,0
111920,89696.00,510.53,509.98,6304,-992,15196,1,0,0
111952,89696.00,510.53,509.99,5964,-384,14400,1,0,0
111985,89696.00,510.53,509.99,4080,3636,13276,1,0,0
112019,89696.00,510.53,510.00,4316,3876,12932,1,0,0
112056,89695.00,510.63,510.01,4340,3532,13116,1,0,0
112089,89695.00,510.63,510.01,5308,1904,13872,1,0,0
112122,89695.00,510.63,510.02,5588,-184,14908,1,0,0
112155,89695.00,510.63,510.02,6148,-2396,14936,1,0,0
112188,89695.00,510.63,510.03,7868,-4516,12956,1,0,0
112222,89695.00,510.63,510.04,6528,-4732,12396,1,0,0
112254,89696.00,510.53,510.04,5208,-4856,13172,1,0,0
112287,89696.00,510.53,510.05,10456,-3668,10628,1,0,0
112321,89696.00,510.53,510.05,5804,-3988,15056,1,0,0
112363,89696.00,510.53,510.06,6296,-3484,14860,1,0,0
112394,89696.00,510.53,510.06,5736,-3728,13996,1,0,0
112427,89696.00,510.53,510.07,5464,-3184,13892,1,0,0
112460,89696.00,510.53,510.07,6228,-3660,15356,1,0,0
112493,89696.00,510.53,510.08,7132,-5324,15544,1,0,0
112527,89696.00,510.53,510.08,4964,-3704,15320,1,0,0
112560,89696.00,510.53,510.08,4536,-1980,15384,1,0,0
112592,89696.00,510.53,510.09,8360,716,13040,1,0,0
112653,89696.00,510.53,510.09,4012,1980,13656,1,0,0
112686,89696.00,510.53,510.10,5820,3124,13136,1,0,0
112722,89696.00,510.53,510.10,7764,-1320,16008,1,0,0
112755,89696.00,510.53,510.11,9512,2552,11636,1,0,0
112789,89697.00,510.44,510.11,9352,-6444,17620,1,0,0
112822,89697.00,510.44,510.11,9416,-3456,11716,1,0,0
112856,89697.00,510.44,510.12,9496,-784,13064,1,0,0
112888,89696.00,510.53,510.12,9452,-1628,11580,1,0,0
112921,89696.00,510.53,510.12,9896,-932,13248,1,0,0
112955,89697.00,510.44,510.13,8128,-3040,18724,1,0,0
112988,89696.00,510.53,510.13,12764,-808,7288,1,0,0
113020,89697.00,510.44,510.14,9584,-60,8552,1,0,0
113057,89697.00,510.44,510.14,14020,-3308,4484,1,0,0
113091,89696.00,510.53,510.14,11976,48,10692,1,0,0
113124,89696.00,510.53,510.15,13980,-1648,8028,1,0,0
113158,89696.00,510.53,510.15,14296,-1796,8796,1,0,0
113190,89696.00,510.53,510.15,15016,-496,9536,1,0,0
113223,89695.00,510.63,510.16,13028,-628,10760,1,0,0
113257,89695.00,510.63,510.16,16580,-380,7828,1,0,0
113290,89696.00,510.53,510.17,12764,896,-6260,1,0,0
113323,89695.00,510.63,510.17,8676,-6572,-17640,1,0,0
113360,89695.00,510.63,510.17,11108,-3492,9104,1,0,0
113393,89695.00,510.63,510.18,18680,-2216,32767,1,0,0
113426,89696.00,510.53,510.18,26292,-2188,21536,1,0,0
113460,89696.00,510.53,510.19,8924,-3140,-1484,1,0,0
113492,89695.00,510.63,510.19,4292,-1324,-19216,1,0,0
113526,89695.00,510.63,510.19,10324,-1436,-8936,1,0,0
113559,89694.00,510.72,510.20,11872,-1412,32388,1,0,0
113592,89695.00,510.72,510.20,14472,-2240,25260,1,0,0
113626,89695.00,510.63,510.21,13164,-3572,2864,1,0,0
113658,89694.00,510.72,510.21,15512,-6500,-4436,1,0,0
113695,89694.00,510.72,510.22,14052,-3328,17304,1,0,0
113729,89694.00,510.72,510.22,14208,772,19456,1,0,0
113762,89694.00,510.72,510.23,10192,-1196,5736,1,0,0
113795,89694.00,510.72,510.23,13120,-2864,-8076,1,0,0
113828,89695.00,510.63,510.24,13068,-776,3976,1,0,0
113861,89694.00,510.72,510.24,12696,180,26084,1,0,0
113894,89695.00,510.63,510.24,14336,-3332,9432,1,0,0
113928,89695.00,510.63,510.25,15192,-2944,-12228,1,0,0
113960,89695.00,510.63,510.25,12188,-3120,-920,1,0,0
113997,89696.00,510.53,510.25,12560,-824,29392,1,0,0
114031,89695.00,510.63,510.26,15216,-668,13552,1,0,0
114064,89695.00,510.63,510.26,11672,-2460,-11852,1,0,0
114097,89695.00,510.63,510.26,10088,-1056,-1036,1,0,0
114130,89695.00,510.63,510.27,14948,-1268,22896,1,0,0
114190,89695.00,510.63,510.27,11252,-2332,11480,1,0,0
114224,89694.00,510.72,510.28,12868,-1964,7092,1,0,0
114256,89694.00,510.72,510.28,12872,-1396,6236,1,0,0
114298,89694.00,510.72,510.28,8540,-332,7888,1,0,0
114335,89694.00,510.72,510.29,6284,-528,8084,1,0,0
114368,89693.00,510.81,510.29,7308,-728,11796,1,0,0
114401,89693.00,510.81,510.30,8268,-1544,13424,1,0,0
114434,89694.00,510.72,510.30,5844,-1200,15508,1,0,0
114466,89694.00,510.72,510.31,5308,-2040,17952,1,0,0
114500,89695.00,510.63,510.31,8148,-3768,16512,1,0,0
114533,89696.00,510.53,510.31,7712,-5056,14256,1,0,0
114566,89696.00,510.53,510.31,7244,-2528,14680,1,0,0
114598,89696.00,510.53,510.31,4948,-2372,15076,1,0,0
114631,89696.00,510.53,510.32,2416,-136,12144,1,0,0
114668,89694.00,510.63,510.32,2880,-1800,15948,1,0,0
114701,89694.00,510.72,510.32,5404,-1852,14568,1,0,0
114734,89695.00,510.63,510.33,6580,-2148,13952,1,0,0
114766,89695.00,510.63,510.33,3796,-1004,15744,1,0,0
114800,89695.00,510.63,510.33,3924,-500,15648,1,0,0
114833,89695.00,510.63,510.33,7140,-1704,14764,1,0,0
114866,89695.00,510.63,510.34,5096,-2100,15056,1,0,0
114898,89695.00,510.63,510.34,3288,-1232,16436,1,0,0
114931,89695.00,510.63,510.34,6704,-1280,14028,1,0,0
114965,89695.00,510.63,510.34,5500,-1136,13792,1,0,0
115002,89696.00,510.53,510.35,4496,260,13452,1,0,0
115035,89696.00,510.53,510.35,6668,-216,13372,1,0,0
115068,89695.00,510.63,510.35,7696,-684,12916,1,0,0
115101,89695.00,510.63,510.35,7440,-1076,14152,1,0,0
115135,89695.00,510.63,510.35,7540,-1000,12964,1,0,0
115168,89695.00,510.63,510.36,8132,-1428,11552,1,0,0
115202,89695.00,510.63,510.36,8560,-1304,13160,1,0,0
115234,89695.00,510.63,510.36,7488,-1524,13192,1,0,0
115268,89695.00,510.63,510.36,7432,-1288,13680,1,0,0
115305,89694.00,510.72,510.37,6864,-56,14440,1,0,0
115339,89695.00,510.63,510.37,7336,-736,14276,1,0,0
115372,89695.00,510.63,510.37,7604,-1544,13372,1,0,0
115405,89695.00,510.63,510.37,5620,-848,14068,1,0,0
115439,89694.00,510.72,510.38,7704,-1904,14392,1,0,0
115472,89695.00,510.63,510.38,6832,-1080,13424,1,0,0
115506,89695.00,510.63,510.38,5236,-1264,14108,1,0,0
115538,89695.00,510.63,510.38,6924,-1640,14840,1,0,0
115572,89695.00,510.63,510.39,6400,-836,15796,1,0,0
115605,89695.00,510.63,510.39,4708,-2088,15236,1,0,0
115643,89695.00,510.63,510.39,5424,-2084,14272,1,0,0
115703,89696.00,510.53,510.39,5748,-2152,14496,1,0,0
115737,89696.00,510.53,510.39,4948,-2296,14100,1,0,0
115770,89695.00,510.63,510.39,5016,-1832,14376,1,0,0
115804,89695.00,510.63,510.40,4964,-1968,14476,1,0,0
115836,89695.00,510.63,510.40,5792,-3360,14836,1,0,0
115870,89695.00,510.63,510.40,5404,-3084,14472,1,0,0
115903,89695.00,510.63,510.40,4460,-3256,14640,1,0,0
115937,89696.00,510.53,510.40,5800,-2908,13692,1,0,0
115974,89696.00,510.53,510.40,2736,-2668,12644,1,0,0
116007,89696.00,510.53,510.40,-5804,-3644,30264,1,0,0
116040,89696.00,510.53,510.41,6656,-936,12136,1,0,0
116074,89695.00,510.63,510.41,4884,-2324,15188,1,0,0
116107,89695.00,510.63,510.41,5628,-2228,14752,1,0,0
116141,89695.00,510.63,510.41,4916,-2484,13968,1,0,0
116173,89695.00,510.63,510.41,4380,-2528,13828,1,0,0
116207,89695.00,510.63,510.41,4148,-4248,14712,1,0,0
116249,89696.00,510.53,510.41,3836,-3328,15060,1,0,0
116283,89696.00,510.53,510.42,3976,-2884,14844,1,0,0
116320,89696.00,510.53,510.42,2552,-3480,16664,1,0,0
116354,89697.00,510.53,510.42,3896,-2392,14588,1,0,0
116386,89697.00,510.44,510.42,4552,-3432,14188,1,0,0
116420,89697.00,510.44,510.42,3604,-3488,15408,1,0,0
116454,89696.00,510.53,510.42,3964,-2636,14024,1,0,0
116487,89696.00,510.53,510.42,4544,-4288,12544,1,0,0
116520,89696.00,510.53,510.42,2364,-2700,15996,1,0,0
116553,89696.00,510.53,510.42,2972,-3440,14876,1,0,0
116587,89695.00,510.63,510.42,3724,-2320,12624,1,0,0
116624,89695.00,510.63,510.42,9468,-588,4804,1,0,0
116658,89695.00,510.63,510.43,-3024,-3088,13356,1,0,0
116690,89695.00,510.63,510.43,2812,-3548,13796,1,0,0
116724,89695.00,510.63,510.43,628,-3944,15416,1,0,0
116757,89695.00,510.63,510.43,92,-4272,15160,1,0,0
116791,89694.00,510.72,510.43,840,-4116,14880,1,0,0
116824,89695.00,510.63,510.43,688,-4084,15012,1,0,0
116857,89695.00,510.63,510.43,-736,-4932,13344,1,0,0
116890,89695.00,510.63,510.44,-824,-5688,13392,1,0,0
116924,89695.00,510.63,510.44,3084,-2112,15484,1,0,0
116961,89695.00,510.63,510.44,2856,-3024,14792,1,0,0
116995,89694.00,510.72,510.44,568,-4028,14904,1,0,0
117027,89695.00,510.63,510.44,-2124,-4872,17316,1,0,0
117061,89695.00,510.63,510.44,1456,-5664,14576,1,0,0
117094,89695.00,510.63,510.44,-32,-1980,18016,1,0,0
117128,89695.00,510.63,510.45,-624,-3312,16952,1,0,0
117160,89695.00,510.63,510.45,-3292,-6396,24168,1,0,0
117194,89696.00,510.53,510.45,4692,-6024,14048,1,0,0
117255,89696.00,510.53,510.45,3932,-5244,14472,1,0,0
117292,89696.00,510.53,510.45,5200,-1964,14428,1,0,0
117325,89695.00,510.63,510.45,1712,-3196,16300,1,0,0
117358,89695.00,510.63,510.45,6952,-3852,13944,1,0,0
117392,89695.00,510.63,510.45,6176,-2824,13880,1,0,0
117425,89695.00,510.63,510.45,3788,-3200,15260,1,0,0
117458,89696.00,510.53,510.45,4412,-3772,14720,1,0,0
117491,89696.00,510.53,510.46,6048,-2104,13844,1,0,0
117525,89696.00,510.53,510.46,7712,-2988,12976,1,0,0
117559,89696.00,510.53,510.46,8244,-3024,11664,1,0,0
117592,89696.00,510.53,510.46,5468,-444,10028,1,0,0
117628,89697.00,510.44,510.46,5324,-2396,16960,1,0,0
117662,89697.00,510.44,510.46,5124,-2260,16096,1,0,0
117695,89697.00,510.44,510.46,5040,-3732,13836,1,0,0
117729,89697.00,510.44,510.46,3616,-3352,15784,1,0,0
117762,89698.00,510.35,510.46,3312,-3980,15528,1,0,0
117795,89698.00,510.35,510.45,2568,-3796,15284,1,0,0
117829,89697.00,510.44,510.45,7944,-2796,12428,1,0,0
117862,89697.00,510.44,510.45,4856,-2896,14896,1,0,0
117896,89697.00,510.44,510.45,3612,-1252,14732,1,0,0
117933,89698.00,510.35,510.45,4636,-3788,14204,1,0,0
117965,89698.00,510.35,510.45,6264,-3140,14196,1,0,0
117999,89697.00,510.44,510.45,6408,-1768,13740,1,0,0
118032,89697.00,510.44,510.45,12872,-2876,9004,1,0,0
118066,89697.00,510.44,510.45,4204,-1580,16504,1,0,0
118098,89697.00,510.44,510.45,7052,-3356,14000,1,0,0
118132,89697.00,510.44,510.45,17068,4188,5632,1,0,0
118174,89697.00,510.44,510.45,8544,-1904,11852,1,0,0
118208,89697.00,510.44,510.45,12760,-948,9660,1,0,0
118241,89697.00,510.44,510.45,9948,-2644,12140,1,0,0
118278,89697.00,510.44,510.45,10300,-1976,11816,1,0,0
118311,89697.00,510.44,510.45,10416,-1952,11612,1,0,0
118345,89697.00,510.44,510.45,11256,-2468,11260,1,0,0
118378,89697.00,510.44,510.45,9964,-772,12236,1,0,0
118412,89697.00,510.44,510.45,9488,-256,13232,1,0,0
118445,89697.00,510.44,510.45,9200,-1148,12176,1,0,0
118478,89697.00,510.44,510.45,12576,-2128,11840,1,0,0
118511,89697.00,510.44,510.45,10868,-2656,7912,1,0,0
118545,89697.00,510.44,510.45,10368,-2004,8676,1,0,0
118582,89697.00,510.44,510.45,11844,-872,12464,1,0,0
118615,89696.00,510.53,510.45,12852,-1648,10612,1,0,0
118648,89696.00,510.53,510.45,10392,-1584,10520,1,0,0
118682,89696.00,510.53,510.45,19960,-2812,7360,1,0,0
118715,89695.00,510.63,510.45,7784,-1084,14956,1,0,0
118775,89696.00,510.53,510.46,11800,-2604,6336,1,0,0
118809,89696.00,510.53,510.46,11912,-2364,8864,1,0,0
118842,89696.00,510.53,510.46,12004,-1116,11044,1,0,0
118876,89696.00,510.53,510.46,13692,-700,9236,1,0,0
118908,89696.00,510.53,510.46,13056,-944,9568,1,0,0
118945,89695.00,510.63,510.46,15252,-1388,8456,1,0,0
118979,89696.00,510.53,510.46,13596,-1456,8272,1,0,0
119012,89696.00,510.53,510.46,13652,-2160,6648,1,0,0
119046,89696.00,510.53,510.46,11560,-1328,10060,1,0,0
119078,89696.00,510.53,510.46,12640,-1464,11380,1,0,0
119112,89696.00,510.53,510.46,14184,-2696,10256,1,0,0
119145,89695.00,510.63,510.46,11844,-2536,9256,1,0,0
119179,89695.00,510.63,510.46,10104,-2992,8592,1,0,0
119212,89695.00,510.63,510.46,13612,-2740,7744,1,0,0
119249,89694.00,510.72,510.46,12376,-2356,8184,1,0,0
119282,89695.00,510.63,510.46,11836,-1884,9468,1,0,0
119316,89695.00,510.63,510.47,15956,-3244,9464,1,0,0
119349,89695.00,510.63,510.47,13144,-1928,9440,1,0,0
119383,89695.00,510.63,510.47,11024,-2416,9932,1,0,0
119415,89695.00,510.63,510.47,11504,-2964,8228,1,0,0
119449,89695.00,510.63,510.47,13348,-2584,7600,1,0,0
