Time,Pascal,alt,KMF,ax,ay,az,LaunchTime,ApoTime,LandTime23328,89306.00,546.86,547.05,968,10108,-17824,1,0,0
23360,89307.00,546.76,547.05,6128,11100,8944,1,0,0
23392,89307.00,546.76,547.05,6572,11340,8876,1,0,0
23425,89307.00,546.76,547.05,6492,10964,9400,1,0,0
23456,89307.00,546.76,547.05,6796,11384,8580,1,0,0
23488,89307.00,546.76,547.05,6620,12232,8040,1,0,0
23520,89307.00,546.76,547.05,7196,11724,8728,1,0,0
23552,89308.00,546.67,547.05,6944,11456,8340,1,0,0
23583,89308.00,546.67,547.04,6684,11524,8608,1,0,0
23619,89307.00,546.76,547.04,6748,12008,8080,1,0,0
23652,89307.00,546.76,547.04,6704,11792,8124,1,0,0
23684,89307.00,546.76,547.04,6604,11448,8932,1,0,0
23716,89306.00,546.86,547.04,6668,12084,8424,1,0,0
23748,89306.00,546.86,547.04,6332,11984,8036,1,0,0
23780,89306.00,546.86,547.04,6576,12292,8492,1,0,0
23813,89305.00,546.95,547.04,6916,11800,8664,1,0,0
23844,89306.00,546.86,547.04,7672,12224,7820,1,0,0
23877,89306.00,546.86,547.04,6600,10668,8632,1,0,0
23909,89306.00,546.86,547.04,6212,10840,8380,1,0,0
23946,89306.00,546.86,547.04,11144,15456,10992,1,0,0
23977,89306.00,546.86,547.04,8036,10880,8420,1,0,0
24018,89305.00,546.95,547.04,7736,9716,8308,1,0,0
24050,89306.00,546.95,547.04,7428,10680,8936,1,0,0
24082,89306.00,546.86,547.04,7244,11076,8836,1,0,0
24114,89306.00,546.86,547.04,7028,10856,9072,1,0,0
24146,89307.00,546.76,547.04,7152,11020,8888,1,0,0
24178,89308.00,546.67,547.04,7232,10972,8888,1,0,0
24210,89308.00,546.67,547.04,7232,10832,9116,1,0,0
24243,89308.00,546.67,547.04,7284,10772,9180,1,0,0
24279,89308.00,546.67,547.04,7188,10988,8696,1,0,0
24310,89308.00,546.67,547.04,7300,11088,8972,1,0,0
24342,89307.00,546.76,547.04,7328,10968,8836,1,0,0
24375,89308.00,546.67,547.04,7180,10724,9324,1,0,0
24407,89308.00,546.67,547.04,7248,11052,9036,1,0,0
24438,89308.00,546.67,547.03,7080,11232,8636,1,0,0
24471,89308.00,546.67,547.03,6912,11740,8308,1,0,0
24503,89309.00,546.58,547.03,7016,11500,8316,1,0,0
24535,89309.00,546.58,547.03,7148,11304,8576,1,0,0
24566,89309.00,546.58,547.03,7212,11160,8864,1,0,0
24603,89309.00,546.58,547.03,7180,11220,8788,1,0,0
24635,89309.00,546.58,547.03,7060,11360,8616,1,0,0
24668,89309.00,546.58,547.03,7228,11144,8704,1,0,0
24699,89309.00,546.58,547.03,7064,11476,8508,1,0,0
24731,89309.00,546.58,547.03,7136,11356,8608,1,0,0
24764,89309.00,546.58,547.03,7068,11364,8676,1,0,0
24796,89309.00,546.58,547.03,7052,11220,8696,1,0,0
24827,89309.00,546.58,547.02,7008,11432,8468,1,0,0
24860,89309.00,546.58,547.02,6940,11528,8460,1,0,0
24892,89309.00,546.58,547.02,7024,11136,8780,1,0,0
24928,89309.00,546.58,547.02,7116,11244,8560,1,0,0
24961,89309.00,546.58,547.02,7068,11340,8540,1,0,0
24992,89309.00,546.58,547.02,7076,11364,8512,1,0,0
25025,89308.00,546.67,547.02,7064,11212,8580,1,0,0
25057,89308.00,546.67,547.02,7020,11196,8828,1,0,0
25090,89308.00,546.67,547.02,6984,11460,8588,1,0,0
25121,89309.00,546.58,547.02,7104,11440,8424,1,0,0
25153,89309.00,546.58,547.02,6972,11160,8648,1,0,0
25186,89309.00,546.58,547.02,6964,11220,8644,1,0,0
25229,89309.00,546.58,547.01,7052,11348,8892,1,0,0
25262,89309.00,546.58,547.01,7120,11448,8276,1,0,0
25293,89309.00,546.58,547.01,6948,10952,9104,1,0,0
25325,89309.00,546.58,547.01,6880,11008,8996,1,0,0
25358,89309.00,546.58,547.01,7044,11188,8848,1,0,0
25390,89309.00,546.58,547.01,7008,10976,9040,1,0,0
25421,89310.00,546.48,547.01,7104,11024,9032,1,0,0
25453,89310.00,546.48,547.01,6960,11028,8892,1,0,0
25486,89310.00,546.48,547.01,7024,11104,8920,1,0,0
25518,89310.00,546.48,547.01,6996,11104,9044,1,0,0
25553,89310.00,546.48,547.01,6944,11204,8868,1,0,0
25586,89310.00,546.48,547.00,6988,10904,9048,1,0,0
25618,89311.00,546.39,547.00,7024,10800,9096,1,0,0
25650,89311.00,546.39,547.00,6952,10976,8956,1,0,0
25681,89311.00,546.39,547.00,6904,10992,8816,1,0,0
25714,89312.00,546.30,547.00,6916,11276,8728,1,0,0
25746,89311.00,546.39,547.00,6412,11396,9004,1,0,0
25778,89311.00,546.39,547.00,6760,11572,8880,1,0,0
25810,89310.00,546.48,546.99,6752,12260,8632,1,0,0
25842,89310.00,546.48,546.99,6844,12940,6584,1,0,0
25878,89311.00,546.48,546.99,6636,12568,7304,1,0,0
25911,89311.00,546.39,546.99,6536,12500,7500,1,0,0
25951,89311.00,546.39,546.99,6752,12464,7384,1,0,0
25982,89311.00,546.39,546.99,6812,13252,5952,1,0,0
26015,89311.00,546.39,546.99,6684,12396,7404,1,0,0
26047,89311.00,546.39,546.98,6328,12200,8120,1,0,0
26079,89311.00,546.39,546.98,6676,12280,7244,1,0,0
26112,89312.00,546.30,546.98,6364,12672,6568,1,0,0
26143,89312.00,546.30,546.98,6604,12688,7152,1,0,0
26175,89313.00,546.20,546.98,6240,12908,6732,1,0,0
26212,89313.00,546.20,546.98,6920,13284,7108,1,0,0
26244,89312.00,546.30,546.97,6404,13636,7648,1,0,0
26275,89312.00,546.30,546.97,6404,13560,6660,1,0,0
26308,89312.00,546.30,546.97,5988,14388,6284,1,0,0
26340,89312.00,546.30,546.97,5216,14144,4972,1,0,0
26373,89313.00,546.20,546.97,4600,13708,5796,1,0,0
26404,89312.00,546.30,546.96,4220,12788,6116,1,0,0
26436,89312.00,546.30,546.96,3864,15496,4856,1,0,0
26469,89312.00,546.30,546.96,3468,14360,4048,1,0,0
26501,89312.00,546.30,546.96,3400,12852,904,1,0,0
26537,89313.00,546.20,546.96,5708,16664,1784,1,0,0
26569,89313.00,546.20,546.95,5164,16432,-1848,1,0,0
26601,89313.00,546.20,546.95,3084,15024,-4436,1,0,0
26634,89314.00,546.11,546.95,1820,14196,-7772,1,0,0
26665,89314.00,546.11,546.95,3740,18732,-1064,1,0,0
26697,89314.00,546.11,546.94,2632,14436,-6816,1,0,0
26730,89313.00,546.20,546.94,2496,14020,-12192,1,0,0
26762,89313.00,546.20,546.94,-108,14044,-11060,1,0,0
26793,89313.00,546.20,546.94,1332,11656,-11492,1,0,0
26826,89314.00,546.11,546.93,1280,11208,-12324,1,0,0
26856,89314.00,546.11,546.93,1688,9432,-15384,1,0,0
26888,89314.00,546.11,546.93,1592,8804,-14636,1,0,0
26919,89315.00,546.02,546.93,1640,9412,-11560,1,0,0
26951,89315.00,546.02,546.92,1796,6804,-16268,1,0,0
26984,89316.00,545.92,546.92,2576,5084,-15472,1,0,0
27016,89316.00,545.92,546.92,15116,10372,-32768,1,0,0
27047,89316.00,545.92,546.91,6120,5028,-19096,1,0,0
27080,89316.00,545.92,546.91,-2680,4116,-17360,1,0,0
27112,89316.00,545.92,546.90,3044,2040,-20180,1,0,0
27155,89316.00,545.92,546.90,1636,3688,-13840,1,0,0
27188,89316.00,545.92,546.90,14668,2124,-29652,1,0,0
27219,89316.00,545.92,546.89,1600,2716,-18348,1,0,0
27251,89317.00,545.83,546.89,-460,1360,-17092,1,0,0
27284,89317.00,545.83,546.88,836,1420,-16920,1,0,0
27316,89318.00,545.74,546.88,1360,2048,-17128,1,0,0
27347,89318.00,545.74,546.88,1200,736,-18284,1,0,0
27380,89318.00,545.74,546.87,1596,1468,-18128,1,0,0
27412,89318.00,545.74,546.87,1796,2452,-16092,1,0,0
27444,89318.00,545.74,546.86,1284,916,-17836,1,0,0
27481,89318.00,545.74,546.86,1540,1472,-18296,1,0,0
27512,89317.00,545.83,546.85,1608,380,-17956,1,0,0
27544,89317.00,545.83,546.85,1496,1980,-17380,1,0,0
27577,89316.00,545.92,546.84,1116,736,-17188,1,0,0
27609,89317.00,545.83,546.84,608,1304,-16436,1,0,0
27641,89317.00,545.83,546.83,888,1996,-16676,1,0,0
27673,89317.00,545.83,546.83,948,2848,-16876,1,0,0
27705,89317.00,545.83,546.82,-2668,7732,-12060,1,0,0
27738,89316.00,545.92,546.82,13212,5656,-26976,1,0,0
27769,89317.00,545.83,546.81,-2760,3928,-13908,1,0,0
27799,89317.00,545.83,546.81,-224,3820,-16368,1,0,0
27832,89317.00,545.83,546.80,448,3756,-16776,1,0,0
27864,89318.00,545.74,546.80,1336,3600,-17564,1,0,0
27895,89318.00,545.74,546.79,1448,3704,-17644,1,0,0
27935,89318.00,545.74,546.78,1224,3740,-17416,1,0,0
27968,89317.00,545.83,546.78,1112,3792,-17468,1,0,0
28000,89317.00,545.83,546.77,1280,3704,-17484,1,0,0
28032,89317.00,545.83,546.77,1032,3644,-17408,1,0,0
28064,89317.00,545.83,546.76,1088,3632,-17556,1,0,0
28100,89317.00,545.83,546.76,1196,3772,-17416,1,0,0
28132,89317.00,545.83,546.75,1004,3712,-17292,1,0,0
28164,89317.00,545.83,546.75,1164,3704,-17420,1,0,0
28196,89317.00,545.83,546.74,1160,3788,-17240,1,0,0
28228,89317.00,545.83,546.73,1212,3708,-17340,1,0,0
28260,89317.00,545.83,546.73,1064,3816,-17336,1,0,0
28293,89317.00,545.83,546.72,1184,3724,-17328,1,0,0
28324,89317.00,545.83,546.72,1212,3776,-17524,1,0,0
28356,89317.00,545.83,546.71,1164,3644,-17280,1,0,0
28388,89316.00,545.92,546.71,1140,3732,-17484,1,0,0
28425,89315.00,546.02,546.70,1204,3684,-17440,1,0,0
28466,89315.00,546.02,546.70,1216,3720,-17344,1,0,0
28496,89316.00,545.92,546.69,1152,3688,-17340,1,0,0
28527,89316.00,545.92,546.69,1164,3820,-17300,1,0,0
28558,89315.00,546.02,546.68,1180,3628,-17308,1,0,0
28589,89315.00,546.02,546.68,1136,3744,-17424,1,0,0
28619,89315.00,546.02,546.67,1300,3792,-17328,1,0,0
28650,89315.00,546.02,546.67,1144,3796,-17392,1,0,0
28681,89315.00,546.02,546.66,1160,3648,-17536,1,0,0
28716,89314.00,546.11,546.66,1236,3744,-17384,1,0,0
28746,89314.00,546.11,546.65,1072,3748,-17356,1,0,0
28777,89314.00,546.11,546.65,1136,3760,-17420,1,0,0
28808,89314.00,546.11,546.65,1156,3708,-17444,1,0,0
28838,89314.00,546.11,546.64,1136,3852,-17364,1,0,0
28869,89313.00,546.20,546.64,1148,3724,-17488,1,0,0
28900,89313.00,546.20,546.64,1188,3700,-17416,1,0,0
28931,89314.00,546.11,546.63,1144,3732,-17324,1,0,0
28961,89314.00,546.11,546.63,1108,3728,-17420,1,0,0
28992,89314.00,546.11,546.62,1316,3768,-17468,1,0,0
29027,89314.00,546.11,546.62,1168,3876,-17476,1,0,0
29058,89313.00,546.20,546.62,1160,3692,-17212,1,0,0
29088,89313.00,546.20,546.61,1268,3752,-17644,1,0,0
29119,89314.00,546.11,546.61,1132,3644,-17348,1,0,0
29150,89314.00,546.11,546.61,1112,3768,-17408,1,0,0
29180,89313.00,546.20,546.60,1056,3728,-17340,1,0,0
29211,89313.00,546.20,546.60,1236,3856,-17508,1,0,0
29242,89314.00,546.11,546.60,1072,3588,-17444,1,0,0
29273,89314.00,546.11,546.59,1244,3636,-17444,1,0,0
29303,89314.00,546.11,546.59,1080,3656,-17340,1,0,0
29338,89314.00,546.11,546.59,1048,3740,-17520,1,0,0
29369,89314.00,546.11,546.58,1228,3756,-17388,1,0,0
29400,89314.00,546.11,546.58,1024,3676,-17468,1,0,0
29430,89314.00,546.11,546.58,968,3720,-17500,1,0,0
29461,89314.00,546.11,546.57,1204,3724,-17432,1,0,0
29492,89314.00,546.11,546.57,1028,3716,-17248,1,0,0
29522,89314.00,546.11,546.57,1080,3756,-17392,1,0,0
29553,89314.00,546.11,546.56,1260,3780,-17356,1,0,0
29584,89314.00,546.11,546.56,1144,3732,-17448,1,0,0
29619,89314.00,546.11,546.56,1576,3688,-17620,1,0,0
29649,89314.00,546.11,546.55,1140,3828,-17292,1,0,0
29680,89314.00,546.11,546.55,528,3380,-16548,1,0,0
29711,89314.00,546.11,546.55,1104,3816,-17500,1,0,0
29742,89315.00,546.02,546.54,1128,3744,-17280,1,0,0
29772,89315.00,546.02,546.54,1232,3808,-17504,1,0,0
29803,89314.00,546.11,546.53,1244,3880,-17348,1,0,0
29834,89314.00,546.11,546.53,1196,3792,-17388,1,0,0
29864,89314.00,546.11,546.53,1204,3796,-17260,1,0,0
29895,89314.00,546.11,546.52,1304,3660,-17488,1,0,0
29930,89314.00,546.11,546.52,1184,3740,-17316,1,0,0
29961,89314.00,546.11,546.52,1276,3836,-17496,1,0,0
29991,89315.00,546.02,546.51,1028,3736,-17300,1,0,0
30022,89315.00,546.02,546.51,1184,3796,-17320,1,0,0
30053,89315.00,546.02,546.51,1080,3584,-17248,1,0,0
30084,89315.00,546.02,546.50,1084,3784,-17552,1,0,0
30114,89314.00,546.11,546.50,1096,3416,-17440,1,0,0
30145,89314.00,546.11,546.50,916,3456,-17120,1,0,0
30185,89314.00,546.11,546.49,1004,3480,-17524,1,0,0
30216,89314.00,546.11,546.49,1300,3732,-17464,1,0,0
30249,89314.00,546.11,546.49,1244,3692,-17432,1,0,0
30289,89314.00,546.11,546.48,1200,3796,-17380,1,0,0
30320,89314.00,546.11,546.48,1272,3812,-17392,1,0,0
30351,89314.00,546.11,546.48,1168,3720,-17544,1,0,0
30382,89315.00,546.02,546.48,1024,3656,-17108,1,0,0
30412,89315.00,546.02,546.47,1100,3828,-17116,1,0,0
30443,89316.00,545.92,546.47,1140,3872,-17196,1,0,0
30474,89317.00,545.83,546.46,1428,3632,-17428,1,0,0
30504,89316.00,545.92,546.46,1180,3732,-17504,1,0,0
30535,89316.00,545.92,546.45,1272,3832,-17552,1,0,0
30564,89316.00,545.92,546.45,1224,3936,-17508,1,0,0
30595,89317.00,545.83,546.44,1104,3744,-17240,1,0,0
30625,89316.00,545.92,546.44,1172,3840,-17288,1,0,0
30656,89316.00,545.92,546.44,1236,3944,-17428,1,0,0
30687,89316.00,545.92,546.43,1252,3624,-17656,1,0,0
30717,89316.00,545.92,546.43,912,3100,-17268,1,0,0
30748,89315.00,546.02,546.42,1404,3048,-17200,1,0,0
30779,89316.00,545.92,546.42,940,3480,-17364,1,0,0
30810,89316.00,545.92,546.42,1196,3532,-17568,1,0,0
30843,89316.00,545.92,546.41,1180,3476,-17092,1,0,0
30874,89316.00,545.92,546.41,1408,3416,-17496,1,0,0
30905,89317.00,545.83,546.40,1228,3568,-17372,1,0,0
30936,89316.00,545.92,546.40,1156,3488,-17284,1,0,0
30966,89316.00,545.92,546.40,-1216,3028,-17960,1,0,0
30997,89317.00,545.83,546.39,2700,3912,-18800,1,0,0
31028,89317.00,545.83,546.39,8,3236,-16696,1,0,0
31058,89317.00,545.83,546.38,2168,4344,-18056,1,0,0
31089,89317.00,545.83,546.38,676,3992,-16612,1,0,0
31120,89317.00,545.83,546.37,1604,3876,-17852,1,0,0
31155,89317.00,545.83,546.37,884,3616,-17160,1,0,0
31185,89317.00,545.83,546.36,1444,3620,-17732,1,0,0
31216,89317.00,545.83,546.36,964,3796,-17180,1,0,0
31247,89316.00,545.92,546.36,1156,3704,-17528,1,0,0
31278,89316.00,545.92,546.35,1168,3636,-17260,1,0,0
31308,89316.00,545.92,546.35,1112,3744,-17292,1,0,0
31339,89315.00,546.02,546.35,1120,3668,-17408,1,0,0
31370,89315.00,546.02,546.34,1196,3572,-17580,1,0,0
31400,89315.00,546.02,546.34,1280,3748,-17560,1,0,0
31431,89315.00,546.02,546.34,2080,3864,-18052,1,0,0
31465,89315.00,546.02,546.34,2088,4004,-17960,1,0,0
31496,89315.00,546.02,546.33,840,3632,-17156,1,0,0
31526,89315.00,546.02,546.33,892,3684,-17156,1,0,0
31557,89315.00,546.02,546.33,1460,3412,-18040,1,0,0
31588,89315.00,546.02,546.33,624,3596,-17036,1,0,0
31619,89315.00,546.02,546.32,1228,3536,-17556,1,0,0
31649,89315.00,546.02,546.32,1160,3736,-17348,1,0,0
31680,89314.00,546.11,546.32,1220,3856,-17444,1,0,0
31711,89315.00,546.02,546.32,1100,3624,-17336,1,0,0
31746,89315.00,546.02,546.31,1232,3900,-17352,1,0,0
31776,89316.00,545.92,546.31,1096,3744,-17212,1,0,0
31807,89316.00,545.92,546.31,1120,3396,-17816,1,0,0
31838,89317.00,545.83,546.30,1040,3868,-17128,1,0,0
31868,89316.00,545.92,546.30,1436,3604,-17732,1,0,0
31899,89316.00,545.92,546.30,676,3784,-16904,1,0,0
31929,89317.00,545.83,546.29,1428,3688,-17736,1,0,0
31969,89317.00,545.83,546.29,1152,1576,-18876,1,0,0
32000,89318.00,545.74,546.29,724,3184,-17228,1,0,0
32030,89317.00,545.83,546.28,1024,4016,-17040,1,0,0
32065,89317.00,545.83,546.28,976,3828,-17244,1,0,0
32105,89317.00,545.83,546.27,1280,3748,-17400,1,0,0
32135,89317.00,545.83,546.27,1196,3740,-17408,1,0,0
32165,89317.00,545.83,546.27,1328,3716,-17436,1,0,0
32196,89317.00,545.83,546.26,1200,3732,-17492,1,0,0
32227,89317.00,545.83,546.26,1200,3704,-17376,1,0,0
32258,89317.00,545.83,546.26,1156,3732,-17348,1,0,0
32288,89317.00,545.83,546.25,1196,3628,-17388,1,0,0
32319,89318.00,545.74,546.25,1104,3648,-17432,1,0,0
32350,89318.00,545.74,546.24,1196,3724,-17460,1,0,0
32385,89319.00,545.64,546.24,1080,3704,-17356,1,0,0
32415,89319.00,545.64,546.23,1232,3780,-17416,1,0,0
32446,89318.00,545.74,546.23,1128,3760,-17464,1,0,0
32477,89318.00,545.74,546.23,1204,3748,-17380,1,0,0
32507,89318.00,545.74,546.22,1180,3708,-17360,1,0,0
32538,89318.00,545.74,546.22,932,3708,-17184,1,0,0
32569,89317.00,545.83,546.22,1192,3788,-17324,1,0,0
32600,89317.00,545.83,546.21,1128,3700,-17312,1,0,0
32630,89317.00,545.83,546.21,1312,3788,-17456,1,0,0
32664,89317.00,545.83,546.21,1184,3752,-17360,1,0,0
32695,89317.00,545.83,546.20,1172,3724,-17284,1,0,0
32726,89317.00,545.83,546.20,1272,3740,-17380,1,0,0
32756,89317.00,545.83,546.20,1156,3704,-17428,1,0,0
32787,89317.00,545.83,546.19,1108,3596,-17368,1,0,0
32818,89317.00,545.83,546.19,1164,3732,-17356,1,0,0
32848,89317.00,545.83,546.19,1160,3616,-17296,1,0,0
32879,89317.00,545.83,546.18,1064,3984,-17348,1,0,0
32910,89318.00,545.74,546.18,1224,3668,-17380,1,0,0
32941,89318.00,545.74,546.18,1504,3956,-17616,1,0,0
32974,89318.00,545.74,546.17,1276,3852,-17552,1,0,0
33005,89318.00,545.74,546.17,1144,3720,-17356,1,0,0
33036,89319.00,545.64,546.17,1132,3648,-17420,1,0,0
33065,89319.00,545.64,546.16,1252,3712,-17368,1,0,0
33096,89319.00,545.64,546.16,1120,3688,-17384,1,0,0
33127,89319.00,545.64,546.15,1256,3768,-17356,1,0,0
33158,89319.00,545.64,546.15,1092,3696,-17448,1,0,0
33187,89319.00,545.64,546.14,1180,3720,-17540,1,0,0
33218,89318.00,545.74,546.14,1188,3624,-17268,1,0,0
33249,89318.00,545.74,546.14,1008,3208,-17060,1,0,0
33283,89318.00,545.74,546.13,1032,3512,-17448,1,0,0
33313,89318.00,545.74,546.13,336,3480,-16856,1,0,0
33344,89318.00,545.74,546.13,1460,3532,-17576,1,0,0
33374,89318.00,545.74,546.12,1676,3972,-17736,1,0,0
33404,89318.00,545.74,546.12,724,3668,-17028,1,0,0
33435,89317.00,545.83,546.12,1356,3552,-17608,1,0,0
33466,89317.00,545.83,546.12,1904,3968,-17244,1,0,0
33496,89317.00,545.83,546.11,720,3664,-16972,1,0,0
33526,89316.00,545.92,546.11,1288,3640,-17624,1,0,0
33561,89317.00,545.83,546.11,1108,3708,-17372,1,0,0
33592,89318.00,545.74,546.11,1180,3724,-17476,1,0,0
33623,89317.00,545.83,546.10,1088,3872,-17372,1,0,0
33653,89317.00,545.83,546.10,1296,3984,-17516,1,0,0
33684,89317.00,545.83,546.10,1204,3708,-17404,1,0,0
33724,89317.00,545.83,546.10,1216,3636,-17256,1,0,0
33755,89316.00,545.92,546.10,1168,3808,-17544,1,0,0
33786,89316.00,545.92,546.09,1144,3792,-17384,1,0,0
33817,89316.00,545.92,546.09,1228,3696,-17180,1,0,0
33848,89316.00,545.92,546.09,1972,4708,-18196,1,0,0
33883,89315.00,546.02,546.09,1320,3660,-17628,1,0,0
33924,89315.00,546.02,546.09,1276,3532,-17268,1,0,0
33954,89317.00,545.83,546.09,1088,3644,-17224,1,0,0
33985,89317.00,545.83,546.09,764,3872,-16716,1,0,0
34016,89317.00,545.83,546.08,1424,3672,-17980,1,0,0
34046,89317.00,545.83,546.08,1000,3576,-17148,1,0,0
34077,89317.00,545.83,546.08,1124,3716,-17324,1,0,0
34108,89317.00,545.83,546.08,1192,3712,-17640,1,0,0
34140,89317.00,545.83,546.08,1136,3624,-17268,1,0,0
34170,89317.00,545.83,546.07,984,3612,-17308,1,0,0
34205,89318.00,545.74,546.07,1140,3664,-17672,1,0,0
34236,89317.00,545.83,546.07,1340,3748,-16892,1,0,0
34267,89317.00,545.83,546.07,1424,3164,-17844,1,0,0
34297,89317.00,545.83,546.07,1168,3148,-17148,1,0,0
34328,89317.00,545.83,546.06,1220,3256,-17360,1,0,0
34359,89317.00,545.83,546.06,1204,3360,-17436,1,0,0
34390,89317.00,545.83,546.06,1196,3296,-17468,1,0,0
34421,89317.00,545.83,546.06,1184,3504,-17572,1,0,0
34452,89318.00,545.74,546.06,1100,3300,-17300,1,0,0
34487,89318.00,545.74,546.05,1136,3464,-17560,1,0,0
34518,89318.00,545.74,546.05,1120,3416,-17356,1,0,0
34548,89318.00,545.74,546.05,1228,3376,-17324,1,0,0
34579,89317.00,545.83,546.05,1100,3760,-17712,1,0,0
34610,89317.00,545.83,546.05,1200,3560,-17428,1,0,0
34640,89317.00,545.83,546.04,1136,3308,-17188,1,0,0
34671,89317.00,545.83,546.04,1240,3476,-17380,1,0,0
34703,89316.00,545.92,546.04,1136,3440,-17388,1,0,0
34734,89316.00,545.92,546.04,1220,3468,-17396,1,0,0
34764,89316.00,545.92,546.04,1092,3632,-17536,1,0,0
34799,89316.00,545.92,546.04,1208,3652,-17588,1,0,0
34830,89316.00,545.92,546.04,952,3280,-17084,1,0,0
34861,89316.00,545.92,546.04,1196,3356,-17384,1,0,0
34891,89316.00,545.92,546.04,1328,3488,-17808,1,0,0
34922,89316.00,545.92,546.04,1184,3376,-17284,1,0,0
34953,89316.00,545.92,546.04,1184,3436,-17144,1,0,0
34983,89316.00,545.92,546.03,1164,3488,-17500,1,0,0
35015,89317.00,545.83,546.03,1216,3592,-17548,1,0,0
35046,89316.00,545.92,546.03,1172,3424,-17348,1,0,0
35077,89316.00,545.92,546.03,1208,3612,-17568,1,0,0
35111,89316.00,545.92,546.03,1160,3528,-17424,1,0,0
35142,89315.00,546.02,546.03,1236,3448,-17328,1,0,0
35173,89316.00,545.92,546.03,1252,3352,-17548,1,0,0
35204,89315.00,546.02,546.03,1308,3472,-17300,1,0,0
35234,89315.00,546.02,546.03,1124,3364,-17476,1,0,0
35265,89315.00,546.02,546.03,1172,3480,-17608,1,0,0
35296,89315.00,546.02,546.03,1212,3476,-17260,1,0,0
35328,89315.00,546.02,546.03,1220,3532,-17588,1,0,0
35358,89314.00,546.11,546.03,1084,3500,-17628,1,0,0
35393,89314.00,546.11,546.03,1240,3476,-17300,1,0,0
35424,89313.00,546.20,546.03,1080,3488,-17520,1,0,0
35454,89314.00,546.11,546.03,1220,3568,-17424,1,0,0
35485,89314.00,546.11,546.03,1200,3720,-17528,1,0,0
35525,89315.00,546.02,546.03,1136,3796,-17416,1,0,0
35556,89315.00,546.02,546.03,1248,3628,-17332,1,0,0
35587,89315.00,546.02,546.03,1276,3644,-17428,1,0,0
35617,89315.00,546.02,546.03,1196,3656,-17488,1,0,0
35648,89314.00,546.11,546.03,1288,3596,-17208,1,0,0
35679,89315.00,546.02,546.03,1220,3696,-17428,1,0,0
35724,89315.00,546.02,546.03,1316,3780,-17296,1,0,0
35755,89315.00,546.02,546.03,1240,3788,-17484,1,0,0
35785,89315.00,546.02,546.03,1188,3556,-17388,1,0,0
35816,89315.00,546.02,546.03,1244,3768,-17492,1,0,0
35847,89315.00,546.02,546.03,1280,3620,-16972,1,0,0
35877,89315.00,546.02,546.03,1044,3500,-17512,1,0,0
35908,89315.00,546.02,546.03,1232,3652,-17648,1,0,0
35939,89315.00,546.02,546.03,1304,3772,-17248,1,0,0
35971,89315.00,546.02,546.03,1292,3532,-17416,1,0,0
36001,89315.00,546.02,546.03,1220,3480,-17324,1,0,0
36036,89315.00,546.02,546.03,1076,3572,-17320,1,0,0
36067,89315.00,546.02,546.03,1248,3892,-17764,1,0,0
36098,89315.00,546.02,546.03,1096,3532,-17392,1,0,0
36128,89315.00,546.02,546.03,1292,3492,-17136,1,0,0
36159,89314.00,546.11,546.03,1112,3840,-17596,1,0,0
36190,89314.00,546.11,546.03,1060,3512,-17192,1,0,0
36220,89314.00,546.11,546.03,1316,4196,-17520,1,0,0
36251,89313.00,546.20,546.03,1076,3552,-17252,1,0,0
36283,89314.00,546.11,546.03,1196,3576,-17336,1,0,0
36317,89314.00,546.11,546.03,1212,3832,-17484,1,0,0
36348,89314.00,546.11,546.03,1024,3768,-17204,1,0,0
36379,89314.00,546.11,546.03,1352,3748,-17496,1,0,0
36410,89314.00,546.11,546.03,924,3684,-17304,1,0,0
36441,89314.00,546.11,546.04,1252,3680,-17272,1,0,0
36471,89313.00,546.20,546.04,1116,3768,-17328,1,0,0
36502,89313.00,546.20,546.04,1212,3648,-17408,1,0,0
36533,89312.00,546.30,546.04,1104,3720,-17352,1,0,0
36563,89312.00,546.30,546.04,1184,3716,-17328,1,0,0
36594,89312.00,546.30,546.04,1224,3732,-17644,1,0,0
36629,89313.00,546.20,546.04,1204,3704,-17364,1,0,0
36660,89313.00,546.20,546.04,1212,3840,-17376,1,0,0
36690,89312.00,546.30,546.04,276,3540,-18160,1,0,0
36721,89313.00,546.20,546.05,1412,3892,-17320,1,0,0
36752,89313.00,546.20,546.05,1136,3664,-17508,1,0,0
36783,89313.00,546.20,546.05,1256,3732,-17392,1,0,0
36814,89313.00,546.20,546.05,1152,3724,-17348,1,0,0
36845,89313.00,546.20,546.05,1080,3692,-17352,1,0,0
36876,89313.00,546.20,546.05,996,3728,-17464,1,0,0
36907,89312.00,546.30,546.05,820,3704,-17024,1,0,0
36941,89312.00,546.30,546.05,1104,3580,-17304,1,0,0
36972,89313.00,546.20,546.05,1024,3828,-17224,1,0,0
37003,89313.00,546.20,546.05,1436,3664,-17732,1,0,0
37033,89313.00,546.20,546.05,1236,3844,-17288,1,0,0
37064,89313.00,546.20,546.06,1256,3708,-17476,1,0,0
37095,89313.00,546.20,546.06,1196,3764,-17500,1,0,0
37126,89313.00,546.20,546.06,1076,3620,-17316,1,0,0
37156,89312.00,546.30,546.06,1148,3644,-17524,1,0,0
37187,89312.00,546.30,546.06,1236,3760,-17456,1,0,0
37222,89311.00,546.39,546.06,1232,3716,-17268,1,0,0
37253,89312.00,546.30,546.06,1228,3676,-17532,1,0,0
37293,89311.00,546.39,546.06,1116,3772,-17364,1,0,0
37323,89312.00,546.30,546.07,1184,3772,-17336,1,0,0
37354,89312.00,546.30,546.07,1356,4012,-17372,1,0,0
37385,89312.00,546.30,546.07,1012,3768,-17336,1,0,0
37415,89312.00,546.30,546.07,1140,3828,-17348,1,0,0
37446,89312.00,546.30,546.07,1224,3660,-17432,1,0,0
37477,89311.00,546.39,546.07,1392,3700,-17664,1,0,0
37518,89311.00,546.39,546.07,1424,3692,-17528,1,0,0
37553,89312.00,546.30,546.07,1292,3784,-17444,1,0,0
37583,89312.00,546.30,546.08,1220,3720,-17500,1,0,0
37614,89312.00,546.30,546.08,1136,3628,-17440,1,0,0
37645,89312.00,546.30,546.08,1216,3716,-17448,1,0,0
37676,89313.00,546.20,546.08,1292,3680,-17368,1,0,0
37706,89313.00,546.20,546.08,1152,3752,-17340,1,0,0
37737,89313.00,546.20,546.08,1192,3640,-17460,1,0,0
37768,89313.00,546.20,546.08,1124,3636,-17396,1,0,0
37798,89314.00,546.11,546.08,1380,3636,-17428,1,0,0
37829,89314.00,546.11,546.08,1152,3556,-17464,1,0,0
37864,89314.00,546.11,546.08,1376,3668,-17572,1,0,0
37895,89314.00,546.11,546.08,1172,3800,-17380,1,0,0
37925,89314.00,546.11,546.08,1040,3672,-17396,1,0,0
37956,89314.00,546.11,546.08,1160,3472,-17448,1,0,0
37987,89314.00,546.11,546.08,1224,3812,-17544,1,0,0
38018,89314.00,546.11,546.08,980,3672,-17280,1,0,0
38048,89314.00,546.11,546.08,1248,3732,-17444,1,0,0
38079,89314.00,546.11,546.08,1168,3672,-17368,1,0,0
38111,89315.00,546.02,546.08,1208,3660,-17288,1,0,0
38145,89315.00,546.02,546.08,1196,3796,-17380,1,0,0
38175,89315.00,546.02,546.08,1132,3808,-17416,1,0,0
38206,89315.00,546.02,546.08,1204,3652,-17388,1,0,0
38237,89316.00,545.92,546.08,1032,3704,-17300,1,0,0
38267,89315.00,546.02,546.08,1128,3660,-17412,1,0,0
38299,89315.00,546.02,546.08,1128,3660,-17352,1,0,0
38330,89315.00,546.02,546.08,1300,3724,-17432,1,0,0
38361,89316.00,545.92,546.08,1060,3684,-17440,1,0,0
38391,89315.00,545.92,546.08,1148,3684,-17500,1,0,0
38422,89315.00,546.02,546.08,1244,3744,-17508,1,0,0
38456,89315.00,546.02,546.08,1056,3828,-17552,1,0,0
38488,89315.00,546.02,546.08,1204,3828,-17368,1,0,0
38518,89314.00,546.11,546.08,1148,3692,-17488,1,0,0
38549,89314.00,546.11,546.08,1260,3768,-17396,1,0,0
38580,89315.00,546.02,546.08,1204,3712,-17396,1,0,0
38610,89315.00,546.02,546.08,1016,3676,-17180,1,0,0
38641,89315.00,546.02,546.08,1148,3672,-17492,1,0,0
38672,89315.00,546.02,546.08,1180,3672,-17356,1,0,0
38703,89315.00,546.02,546.08,1180,3716,-17336,1,0,0
38733,89315.00,546.02,546.08,1256,3676,-17448,1,0,0
38768,89314.00,546.11,546.08,1088,3636,-17412,1,0,0
38799,89314.00,546.11,546.08,1144,3756,-17420,1,0,0
38830,89315.00,546.02,546.08,1244,3908,-17568,1,0,0
38860,89314.00,546.11,546.08,1152,3540,-17408,1,0,0
38891,89314.00,546.11,546.08,1220,3504,-17268,1,0,0
38922,89314.00,546.11,546.08,1180,3620,-17524,1,0,0
38952,89314.00,546.11,546.08,1200,3792,-17460,1,0,0
38983,89314.00,546.11,546.08,1232,3432,-17212,1,0,0
39014,89314.00,546.11,546.08,1320,3500,-17240,1,0,0
39049,89314.00,546.11,546.08,1228,3752,-17744,1,0,0
39088,89314.00,546.11,546.08,1128,3540,-17144,1,0,0
39118,89314.00,546.11,546.08,1268,3728,-17696,1,0,0
39150,89313.00,546.20,546.08,1136,3556,-17384,1,0,0
39181,89313.00,546.20,546.08,1328,3484,-17620,1,0,0
39212,89313.00,546.20,546.08,1324,3492,-17336,1,0,0
39242,89313.00,546.20,546.08,1256,3420,-17064,1,0,0
39273,89313.00,546.20,546.08,1208,3356,-17296,1,0,0
39313,89313.00,546.20,546.08,1228,3436,-17324,1,0,0
39344,89313.00,546.20,546.08,1320,3768,-17688,1,0,0
39378,89313.00,546.20,546.08,1120,3508,-17324,1,0,0
39409,89313.00,546.20,546.08,1120,3404,-17260,1,0,0
39440,89313.00,546.20,546.08,664,3288,-17668,1,0,0
39471,89314.00,546.11,546.08,552,3684,-16824,1,0,0
39501,89314.00,546.11,546.08,1700,3852,-17840,1,0,0
39532,89314.00,546.11,546.08,932,3780,-17232,1,0,0
39563,89314.00,546.11,546.08,1152,3704,-17312,1,0,0
39593,89315.00,546.02,546.08,1024,3652,-17332,1,0,0
39624,89314.00,546.11,546.08,1120,3716,-17304,1,0,0
39655,89314.00,546.11,546.08,1156,3728,-17492,1,0,0
39690,89315.00,546.02,546.08,1244,3716,-17512,1,0,0
39720,89315.00,546.02,546.08,1188,3684,-17372,1,0,0
39751,89315.00,546.02,546.08,1196,3692,-17348,1,0,0
39782,89315.00,546.02,546.08,1160,3748,-17368,1,0,0
39813,89315.00,546.02,546.08,1188,3664,-17404,1,0,0
39843,89315.00,546.02,546.08,1100,3664,-17412,1,0,0
39874,89315.00,546.02,546.08,1204,3592,-17340,1,0,0
39905,89315.00,546.02,546.08,1384,3860,-17372,1,0,0
39936,89315.00,546.02,546.08,1200,3664,-17400,1,0,0
39966,89315.00,546.02,546.08,1208,3588,-17456,1,0,0
39995,89314.00,546.11,546.08,1420,3996,-17384,1,0,0
40026,89314.00,546.11,546.08,1208,3724,-17400,1,0,0
40056,89314.00,546.11,546.08,1168,3680,-17512,1,0,0
40087,89314.00,546.11,546.08,1024,4460,-17996,1,0,0
40118,89313.00,546.20,546.08,1040,3588,-17320,1,0,0
40148,89314.00,546.11,546.08,1236,3532,-17640,1,0,0
40179,89314.00,546.11,546.08,1132,3536,-17340,1,0,0
40210,89314.00,546.11,546.08,1296,3604,-17228,1,0,0
40241,89314.00,546.11,546.08,1160,3520,-17672,1,0,0
40274,89315.00,546.02,546.08,1300,3480,-17464,1,0,0
40305,89315.00,546.02,546.08,1216,3616,-17372,1,0,0
40336,89314.00,546.11,546.08,1268,3276,-17216,1,0,0
40367,89313.00,546.20,546.08,1124,3340,-17124,1,0,0
40397,89313.00,546.20,546.08,1168,3700,-17664,1,0,0
40428,89313.00,546.20,546.08,1204,3824,-17580,1,0,0
40459,89312.00,546.30,546.08,1244,3640,-17388,1,0,0
40489,89312.00,546.30,546.08,1156,3572,-17288,1,0,0
40520,89312.00,546.30,546.08,1268,3536,-17600,1,0,0
40551,89312.00,546.30,546.09,1208,3432,-16944,1,0,0
40586,89312.00,546.30,546.09,1136,3464,-17440,1,0,0
40616,89312.00,546.30,546.09,1288,3548,-17624,1,0,0
40647,89312.00,546.30,546.09,1048,3128,-17112,1,0,0
40678,89313.00,546.20,546.09,1296,3668,-17616,1,0,0
40709,89313.00,546.20,546.09,1120,3612,-17200,1,0,0
40739,89313.00,546.20,546.09,1340,3572,-17384,1,0,0
40770,89312.00,546.30,546.09,1104,3720,-17744,1,0,0
40801,89312.00,546.30,546.09,1272,3540,-17468,1,0,0
40832,89312.00,546.30,546.09,1236,3472,-17436,1,0,0
40876,89312.00,546.30,546.09,1184,3588,-17272,1,0,0
40906,89313.00,546.20,546.09,1276,3364,-17180,1,0,0
40937,89313.00,546.20,546.09,1168,3552,-17516,1,0,0
40968,89313.00,546.20,546.09,1136,3744,-17444,1,0,0
40998,89313.00,546.20,546.09,1196,3496,-17332,1,0,0
41029,89313.00,546.20,546.09,1088,3452,-17260,1,0,0
41060,89313.00,546.20,546.10,1188,3856,-17684,1,0,0
41091,89313.00,546.20,546.10,1336,3684,-17460,1,0,0
41131,89313.00,546.20,546.10,1248,3484,-17436,1,0,0
41161,89313.00,546.20,546.10,964,3200,-17428,1,0,0
41196,89313.00,546.20,546.10,1164,3500,-17388,1,0,0
41227,89313.00,546.20,546.10,1456,3752,-17396,1,0,0
41257,89313.00,546.20,546.10,1084,3548,-17412,1,0,0
41288,89313.00,546.20,546.10,1252,3620,-17160,1,0,0
41319,89312.00,546.30,546.10,1184,3776,-17528,1,0,0
41350,89312.00,546.30,546.10,1308,3772,-17644,1,0,0
41380,89312.00,546.30,546.10,1036,3476,-17120,1,0,0
41411,89311.00,546.39,546.10,1300,3664,-17468,1,0,0
41442,89311.00,546.39,546.10,1152,3608,-17348,1,0,0
41473,89311.00,546.39,546.10,1388,3676,-17368,1,0,0
41506,89311.00,546.39,546.10,1192,3688,-17492,1,0,0
41537,89311.00,546.39,546.11,1144,3632,-17448,1,0,0
41568,89312.00,546.30,546.11,1184,3804,-17296,1,0,0
41598,89311.00,546.39,546.11,1172,3704,-17412,1,0,0
41629,89311.00,546.39,546.11,1072,3740,-17520,1,0,0
41660,89311.00,546.39,546.11,1196,3676,-17400,1,0,0
41691,89311.00,546.39,546.11,1200,3772,-17520,1,0,0
41721,89311.00,546.39,546.11,1220,3580,-17360,1,0,0
41752,89310.00,546.48,546.11,1256,3576,-17020,1,0,0
41787,89311.00,546.39,546.11,1292,3796,-17500,1,0,0
41818,89311.00,546.39,546.12,1208,3712,-17484,1,0,0
41848,89312.00,546.30,546.12,1160,3716,-17388,1,0,0
41879,89312.00,546.30,546.12,1252,3772,-17324,1,0,0
41910,89313.00,546.20,546.12,1180,3620,-17376,1,0,0
41940,89313.00,546.20,546.12,1240,3704,-17356,1,0,0
41971,89312.00,546.30,546.12,1276,3676,-17348,1,0,0
42002,89312.00,546.30,546.12,1248,3584,-17280,1,0,0
42033,89312.00,546.30,546.12,1256,3872,-17488,1,0,0
42063,89312.00,546.30,546.12,1156,3576,-17332,1,0,0
42097,89312.00,546.30,546.12,1104,3532,-17436,1,0,0
42128,89312.00,546.30,546.12,1368,3900,-17348,1,0,0
42159,89312.00,546.30,546.12,1188,3704,-17484,1,0,0
42189,89312.00,546.30,546.12,1116,3660,-17364,1,0,0
42220,89312.00,546.30,546.12,1252,3716,-17120,1,0,0
42251,89312.00,546.30,546.12,1092,3744,-17504,1,0,0
42281,89312.00,546.30,546.13,1204,3600,-17544,1,0,0
42312,89312.00,546.30,546.13,1224,3720,-17280,1,0,0
42343,89312.00,546.30,546.13,1296,3660,-17368,1,0,0
42374,89312.00,546.30,546.13,1304,3788,-17424,1,0,0
42407,89312.00,546.30,546.13,1160,3600,-17556,1,0,0
42438,89312.00,546.30,546.13,1152,3656,-17296,1,0,0
42469,89312.00,546.30,546.13,1272,3840,-17608,1,0,0
42500,89312.00,546.30,546.13,1252,3716,-17528,1,0,0
42530,89312.00,546.30,546.13,1184,3668,-17580,1,0,0
42561,89312.00,546.30,546.13,1176,3544,-17280,1,0,0
42592,89311.00,546.39,546.13,1372,3532,-17356,1,0,0
42622,89311.00,546.39,546.13,1248,3476,-17508,1,0,0
42662,89311.00,546.39,546.13,1156,3388,-17300,1,0,0
42696,89311.00,546.39,546.13,1172,3232,-17288,1,0,0
42727,89311.00,546.39,546.14,1432,3388,-17808,1,0,0
42758,89312.00,546.30,546.14,1108,3228,-17236,1,0,0
42788,89312.00,546.30,546.14,1220,3444,-17444,1,0,0
42818,89312.00,546.30,546.14,1268,3648,-17792,1,0,0
42849,89312.00,546.30,546.14,1280,3348,-17480,1,0,0
42880,89312.00,546.30,546.14,1252,3448,-17516,1,0,0
42919,89312.00,546.30,546.14,1164,3364,-17160,1,0,0
42950,89312.00,546.30,546.14,1192,3216,-17184,1,0,0
42981,89312.00,546.30,546.14,1116,3392,-17372,1,0,0
43171,89310.00,546.48,546.14,1284,3508,-17684,1,0,0
43204,89310.00,546.48,546.14,1164,3332,-17428,1,0,0
43237,89310.00,546.48,546.14,1268,3276,-17332,1,0,0
43270,89310.00,546.48,546.15,1196,3460,-17320,1,0,0
43302,89310.00,546.48,546.15,1136,3548,-17452,1,0,0
43335,89310.00,546.48,546.15,1144,3552,-17472,1,0,0
43369,89310.00,546.48,546.15,984,3656,-17464,1,0,0
43402,89310.00,546.48,546.15,1296,3712,-17416,1,0,0
43435,89310.00,546.48,546.15,1308,3528,-17208,1,0,0
43467,89311.00,546.39,546.15,1164,3608,-17504,1,0,0
43504,89311.00,546.39,546.15,1316,3820,-17508,1,0,0
43537,89312.00,546.30,546.16,1060,3652,-17344,1,0,0
43571,89311.00,546.39,546.16,1252,3568,-17268,1,0,0
43603,89311.00,546.39,546.16,1228,3884,-17672,1,0,0
43637,89311.00,546.39,546.16,1192,3500,-17216,1,0,0
43670,89311.00,546.39,546.16,1120,3624,-17152,1,0,0
43704,89311.00,546.39,546.16,1400,3908,-17280,1,0,0
43737,89310.00,546.48,546.16,892,3636,-17268,1,0,0
43770,89310.00,546.48,546.16,1052,3720,-17344,1,0,0
43807,89310.00,546.48,546.16,1104,3688,-17356,1,0,0
43841,89310.00,546.48,546.16,1072,3532,-17412,1,0,0
43874,89311.00,546.39,546.17,1232,3604,-17444,1,0,0
43908,89311.00,546.39,546.17,1236,3552,-17404,1,0,0
43940,89311.00,546.39,546.17,1224,3480,-17424,1,0,0
43974,89311.00,546.39,546.17,1284,3620,-17364,1,0,0
44007,89311.00,546.39,546.17,1216,3536,-17324,1,0,0
44041,89310.00,546.48,546.17,1188,3724,-17520,1,0,0
44073,89310.00,546.48,546.17,1268,3676,-17512,1,0,0
44107,89310.00,546.48,546.17,1184,3492,-17112,1,0,0
44144,89311.00,546.39,546.17,1244,3684,-17664,1,0,0
44177,89311.00,546.39,546.17,1280,3372,-17320,1,0,0
44211,89311.00,546.39,546.18,1196,3676,-17560,1,0,0
44243,89311.00,546.39,546.18,1288,3600,-17468,1,0,0
44277,89311.00,546.39,546.18,1172,3504,-17404,1,0,0
44310,89311.00,546.39,546.18,1212,3504,-17548,1,0,0
44344,89311.00,546.39,546.18,1144,3528,-17412,1,0,0
44377,89312.00,546.30,546.18,1252,3516,-17576,1,0,0
44410,89312.00,546.30,546.18,1268,3364,-17140,1,0,0
44443,89312.00,546.30,546.18,1244,3564,-17420,1,0,0
44481,89312.00,546.30,546.18,1368,3536,-17500,1,0,0
44514,89311.00,546.39,546.18,980,3112,-17296,1,0,0
44548,89311.00,546.39,546.18,848,3044,-17024,1,0,0
44580,89311.00,546.39,546.18,1368,4072,-17668,1,0,0
44614,89311.00,546.39,546.18,1136,3744,-17344,1,0,0
44656,89311.00,546.39,546.19,1240,3536,-17396,1,0,0
44690,89312.00,546.30,546.19,1100,3348,-17300,1,0,0
44723,89312.00,546.30,546.19,1124,3312,-17104,1,0,0
44756,89312.00,546.30,546.19,1192,3548,-17632,1,0,0
44789,89312.00,546.30,546.19,1108,3476,-17748,1,0,0
44820,89312.00,546.30,546.19,1128,3444,-17448,1,0,0
44854,89312.00,546.30,546.19,1148,3260,-17360,1,0,0
44887,89312.00,546.30,546.19,1240,3384,-17408,1,0,0
44920,89312.00,546.30,546.19,1172,3364,-17380,1,0,0
44953,89312.00,546.30,546.19,1192,3508,-17628,1,0,0
44997,89312.00,546.30,546.19,1156,3292,-17280,1,0,0
45030,89312.00,546.30,546.19,1260,3460,-17120,1,0,0
45064,89312.00,546.30,546.19,1204,3664,-17784,1,0,0
45096,89312.00,546.30,546.19,1192,3384,-17372,1,0,0
45133,89313.00,546.20,546.19,1356,3240,-17396,1,0,0
45167,89312.00,546.30,546.19,1084,3204,-17084,1,0,0
45200,89312.00,546.30,546.19,1208,3676,-17668,1,0,0
45234,89313.00,546.20,546.19,1172,3496,-17504,1,0,0
45266,89312.00,546.30,546.19,1128,3480,-17476,1,0,0
45300,89313.00,546.20,546.19,1144,3352,-17184,1,0,0
45333,89312.00,546.30,546.19,1120,3420,-17268,1,0,0
45367,89313.00,546.20,546.19,1280,3904,-17608,1,0,0
45400,89313.00,546.20,546.19,1172,3624,-17180,1,0,0
45432,89313.00,546.20,546.19,-320,3208,-17664,1,0,0
45470,89312.00,546.30,546.19,1892,3408,-17600,1,0,0
45503,89312.00,546.30,546.19,1424,3280,-18060,1,0,0
45537,89312.00,546.30,546.19,1404,3404,-17652,1,0,0
45570,89311.00,546.39,546.19,1268,3400,-17604,1,0,0
45602,89311.00,546.39,546.19,1188,3208,-17428,1,0,0
45636,89311.00,546.39,546.20,1168,3384,-17612,1,0,0
45669,89311.00,546.39,546.20,1272,3140,-17308,1,0,0
45703,89310.00,546.48,546.20,1144,3040,-17212,1,0,0
45735,89310.00,546.48,546.20,1216,3352,-17720,1,0,0
45772,89311.00,546.39,546.20,1160,3272,-17348,1,0,0
45806,89311.00,546.39,546.20,1316,3204,-17284,1,0,0
45839,89312.00,546.30,546.20,1132,3392,-17856,1,0,0
45873,89311.00,546.39,546.20,1304,3268,-17384,1,0,0
45905,89311.00,546.39,546.20,1160,3220,-17508,1,0,0
45939,89312.00,546.30,546.20,1204,3064,-17456,1,0,0
45972,89313.00,546.20,546.20,1256,3484,-17596,1,0,0
46006,89312.00,546.30,546.20,1152,3284,-17544,1,0,0
46039,89312.00,546.30,546.20,1196,3036,-17312,1,0,0
46071,89311.00,546.39,546.20,1340,3436,-17640,1,0,0
46109,89311.00,546.39,546.20,1268,3260,-17488,1,0,0
46142,89310.00,546.48,546.21,1228,3392,-17636,1,0,0
46176,89310.00,546.48,546.21,1256,3292,-17460,1,0,0
46209,89310.00,546.48,546.21,1096,3200,-17304,1,0,0
46241,89310.00,546.48,546.21,1180,3348,-17672,1,0,0
46275,89311.00,546.39,546.21,1196,3292,-17592,1,0,0
46308,89311.00,546.39,546.21,1160,3460,-17300,1,0,0
46342,89311.00,546.39,546.21,1140,3296,-17500,1,0,0
46374,89311.00,546.39,546.21,1236,3408,-17572,1,0,0
46408,89311.00,546.39,546.21,1052,3336,-17468,1,0,0
46445,89311.00,546.39,546.21,1272,3404,-17472,1,0,0
46478,89312.00,546.30,546.21,1284,3340,-17444,1,0,0
46512,89312.00,546.30,546.21,1332,3460,-17636,1,0,0
46544,89311.00,546.39,546.21,1292,3384,-17372,1,0,0
46586,89311.00,546.39,546.21,1168,3524,-17492,1,0,0
46620,89311.00,546.39,546.22,1252,3380,-17548,1,0,0
46653,89311.00,546.39,546.22,1136,3368,-17132,1,0,0
46687,89310.00,546.48,546.22,1180,3648,-17496,1,0,0
46720,89311.00,546.39,546.22,1248,3600,-17444,1,0,0
46756,89312.00,546.30,546.22,1248,3512,-17420,1,0,0
46790,89312.00,546.30,546.22,1228,3564,-17604,1,0,0
46823,89312.00,546.30,546.22,1224,3520,-17500,1,0,0
46857,89312.00,546.30,546.22,1456,3340,-17516,1,0,0
46889,89312.00,546.30,546.22,1176,3060,-17516,1,0,0
46934,89312.00,546.30,546.22,1248,3364,-17408,1,0,0
46966,89312.00,546.30,546.22,1248,3360,-17620,1,0,0
46999,89312.00,546.30,546.22,1248,3324,-17804,1,0,0
47033,89312.00,546.30,546.22,1380,3048,-16924,1,0,0
47066,89312.00,546.30,546.22,1176,3176,-17768,1,0,0
47104,89313.00,546.20,546.22,1268,3236,-17140,1,0,0
47136,89313.00,546.20,546.22,1124,3472,-17156,1,0,0
47169,89313.00,546.20,546.22,1216,4400,-16896,1,0,0
47203,89313.00,546.20,546.22,368,3736,-16584,1,0,0
47236,89313.00,546.20,546.22,744,3496,-16928,1,0,0
47269,89313.00,546.20,546.22,1020,3500,-17268,1,0,0
47302,89313.00,546.20,546.22,1244,3252,-17012,1,0,0
47336,89312.00,546.30,546.22,1296,3368,-17312,1,0,0
47369,89313.00,546.20,546.22,1212,3808,-17544,1,0,0
47401,89312.00,546.30,546.22,1128,3848,-17600,1,0,0
47439,89312.00,546.30,546.22,1292,3580,-17076,1,0,0
47472,89312.00,546.30,546.22,1232,2976,-17568,1,0,0
47505,89312.00,546.30,546.22,1344,3300,-17600,1,0,0
47539,89313.00,546.20,546.22,1196,3292,-17536,1,0,0
47571,89313.00,546.20,546.22,1196,3432,-17584,1,0,0
47605,89313.00,546.20,546.22,1304,3388,-17408,1,0,0
47638,89313.00,546.20,546.22,1360,3604,-17540,1,0,0
47672,89313.00,546.20,546.22,1264,3364,-17600,1,0,0
47705,89313.00,546.20,546.22,1100,3224,-17168,1,0,0
47741,89313.00,546.20,546.22,1160,3404,-17300,1,0,0
47775,89312.00,546.30,546.22,1160,3508,-17752,1,0,0
47808,89313.00,546.20,546.22,1172,3440,-17620,1,0,0
47841,89313.00,546.20,546.22,1188,3004,-17076,1,0,0
47875,89314.00,546.11,546.22,1456,3320,-18284,1,0,0
47907,89314.00,546.11,546.22,1440,3100,-17756,1,0,0
47941,89314.00,546.11,546.22,1420,3364,-17800,1,0,0
47974,89313.00,546.20,546.22,1068,3444,-17220,1,0,0
48007,89313.00,546.20,546.22,1264,3488,-17540,1,0,0
48040,89313.00,546.20,546.22,1152,3236,-17188,1,0,0
48077,89313.00,546.20,546.22,1176,3172,-17324,1,0,0
48110,89313.00,546.20,546.22,1280,3568,-17540,1,0,0
48144,89313.00,546.20,546.22,1172,3504,-17468,1,0,0
48177,89313.00,546.20,546.22,768,3136,-17340,1,0,0
48209,89313.00,546.20,546.22,1208,3248,-17128,1,0,0
48243,89313.00,546.20,546.22,1188,3524,-17528,1,0,0
48276,89313.00,546.20,546.22,1160,3492,-17336,1,0,0
48310,89313.00,546.20,546.22,1068,3796,-17624,1,0,0
48343,89313.00,546.20,546.22,1284,3480,-17072,1,0,0
48375,89313.00,546.20,546.22,1196,3676,-17252,1,0,0
48413,89313.00,546.20,546.22,1128,3424,-17380,1,0,0
48446,89313.00,546.20,546.22,1208,3476,-17508,1,0,0
48479,89313.00,546.20,546.22,1328,3564,-17376,1,0,0
48522,89313.00,546.20,546.22,940,3580,-17112,1,0,0
48555,89313.00,546.20,546.22,884,3372,-17228,1,0,0
48587,89313.00,546.20,546.22,1204,3528,-17224,1,0,0
48621,89313.00,546.20,546.22,1120,3348,-17564,1,0,0
48654,89313.00,546.20,546.22,1252,3536,-17396,1,0,0
48687,89312.00,546.30,546.22,504,2992,-16784,1,0,0
48720,89311.00,546.39,546.22,780,3264,-17224,1,0,0
48757,89311.00,546.39,546.22,1264,3444,-17584,1,0,0
48790,89311.00,546.39,546.22,1164,3160,-16984,1,0,0
48834,89311.00,546.39,546.22,1332,3656,-18012,1,0,0
48867,89312.00,546.30,546.22,1228,3268,-17412,1,0,0
48900,89312.00,546.30,546.22,1196,3376,-17696,1,0,0
48933,89312.00,546.30,546.22,1196,3108,-17356,1,0,0
48966,89313.00,546.20,546.22,1308,3456,-17764,1,0,0
49000,89312.00,546.30,546.22,1244,3300,-17544,1,0,0
49033,89312.00,546.30,546.22,1244,3200,-17416,1,0,0
49070,89312.00,546.30,546.22,1328,3728,-17440,1,0,0
49103,89312.00,546.30,546.22,1408,3472,-16852,1,0,0
49136,89312.00,546.30,546.22,1076,3104,-17000,1,0,0
49169,89312.00,546.30,546.22,1172,3348,-16676,1,0,0
49203,89312.00,546.30,546.22,1188,3388,-17628,1,0,0
49235,89312.00,546.30,546.22,1196,3448,-17452,1,0,0
49269,89313.00,546.20,546.22,1244,3304,-17472,1,0,0
49302,89312.00,546.30,546.22,1172,3716,-17560,1,0,0
49335,89313.00,546.20,546.22,1264,3464,-17344,1,0,0
49369,89312.00,546.30,546.22,1200,3492,-17468,1,0,0
49405,89312.00,546.30,546.22,1152,3684,-17332,1,0,0
49438,89311.00,546.39,546.22,1120,3620,-17560,1,0,0
49472,89312.00,546.39,546.22,1236,3568,-17372,1,0,0
49505,89312.00,546.30,546.22,1124,3560,-17508,1,0,0
49538,89311.00,546.39,546.22,1272,3532,-17184,1,0,0
49571,89311.00,546.39,546.23,1092,3444,-17176,1,0,0
49604,89311.00,546.39,546.23,1232,3712,-17484,1,0,0
49638,89311.00,546.39,546.23,1096,3656,-17240,1,0,0
49671,89311.00,546.39,546.23,1152,3620,-17344,1,0,0
49703,89311.00,546.39,546.23,1136,3592,-17568,1,0,0
49740,89312.00,546.30,546.23,1200,3628,-17592,1,0,0
49774,89312.00,546.30,546.23,1164,3560,-17040,1,0,0
49807,89312.00,546.30,546.23,3084,6300,-17788,1,0,0
49841,89312.00,546.30,546.23,740,3484,-17076,1,0,0
49873,89312.00,546.30,546.23,1244,3900,-17384,1,0,0
49906,89312.00,546.30,546.23,1192,3572,-17176,1,0,0
49940,89312.00,546.30,546.23,1220,3660,-17416,1,0,0
49973,89312.00,546.30,546.23,1300,3492,-17384,1,0,0
50006,89312.00,546.30,546.23,1340,3452,-17680,1,0,0
50043,89312.00,546.30,546.23,1120,3768,-17220,1,0,0
50076,89312.00,546.30,546.23,1204,3660,-17452,1,0,0
50109,89311.00,546.39,546.23,956,3508,-16824,1,0,0
50143,89311.00,546.39,546.23,912,3616,-17504,1,0,0
50176,89311.00,546.39,546.23,1164,3636,-17336,1,0,0
50208,89310.00,546.48,546.23,2252,4108,-18596,1,0,0
50242,89311.00,546.39,546.23,1212,3552,-17136,1,0,0
50275,89311.00,546.39,546.23,984,3188,-17520,1,0,0
50308,89311.00,546.39,546.23,972,3528,-17844,1,0,0
50341,89311.00,546.39,546.23,1220,3496,-17104,1,0,0
50378,89312.00,546.30,546.23,1200,3520,-17508,1,0,0
50420,89312.00,546.30,546.23,1264,3388,-17408,1,0,0
50453,89312.00,546.30,546.23,1340,3532,-17556,1,0,0
50487,89313.00,546.20,546.23,1084,3632,-17516,1,0,0
50520,89312.00,546.30,546.23,1020,3368,-17248,1,0,0
50552,89312.00,546.30,546.24,1088,3272,-17292,1,0,0
50586,89312.00,546.30,546.24,1172,3732,-17884,1,0,0
50619,89312.00,546.30,546.24,1232,3644,-17504,1,0,0
50652,89312.00,546.30,546.24,1516,3776,-16804,1,0,0
50685,89312.00,546.30,546.24,308,2992,-16092,1,0,0
50722,89312.00,546.30,546.24,1896,3464,-18244,1,0,0
50765,89312.00,546.30,546.24,1260,3232,-17236,1,0,0
50799,89312.00,546.30,546.24,1256,3468,-17720,1,0,0
50832,89312.00,546.30,546.24,1064,3036,-17004,1,0,0
50865,89312.00,546.30,546.24,1052,3364,-17496,1,0,0
50898,89313.00,546.20,546.24,1136,3216,-17472,1,0,0
50931,89312.00,546.30,546.24,1068,3228,-17360,1,0,0
50964,89313.00,546.20,546.24,1172,3324,-17408,1,0,0
50998,89313.00,546.20,546.24,1180,3268,-17348,1,0,0
51035,89313.00,546.20,546.24,1356,3152,-17580,1,0,0
51067,89314.00,546.11,546.24,1216,3196,-17692,1,0,0
51101,89314.00,546.11,546.24,1248,3472,-17348,1,0,0
51134,89313.00,546.20,546.24,1144,3324,-17484,1,0,0
51167,89313.00,546.20,546.23,1012,3572,-17676,1,0,0
51201,89312.00,546.30,546.24,1072,3288,-17348,1,0,0
51233,89312.00,546.30,546.24,968,3148,-17160,1,0,0
51266,89312.00,546.30,546.24,1160,3648,-17664,1,0,0
51300,89312.00,546.30,546.24,1216,3524,-17340,1,0,0
51333,89312.00,546.30,546.24,1180,3212,-17164,1,0,0
51369,89312.00,546.30,546.24,1200,3540,-17620,1,0,0
51402,89312.00,546.30,546.24,1188,3592,-17288,1,0,0
51436,89312.00,546.30,546.24,1540,3080,-17380,1,0,0
51469,89312.00,546.30,546.24,4560,5404,-17996,1,0,0
51502,89312.00,546.30,546.24,5544,3956,-20956,1,0,0
51535,89312.00,546.30,546.24,1396,3568,-17412,1,0,0
51568,89312.00,546.30,546.24,1012,3668,-17312,1,0,0
51601,89312.00,546.30,546.24,972,3720,-17260,1,0,0
51635,89312.00,546.30,546.24,1084,3820,-17360,1,0,0
51667,89312.00,546.30,546.24,1104,3696,-17276,1,0,0
51704,89312.00,546.30,546.24,1316,3676,-17428,1,0,0
51737,89311.00,546.39,546.24,1236,3692,-17456,1,0,0
51771,89312.00,546.30,546.24,1180,3632,-17396,1,0,0
51804,89311.00,546.39,546.24,1116,3692,-17396,1,0,0
51836,89311.00,546.39,546.24,1196,3732,-17440,1,0,0
51870,89311.00,546.39,546.24,1180,3740,-17356,1,0,0
51903,89311.00,546.39,546.24,1184,3708,-17424,1,0,0
51936,89311.00,546.39,546.24,1216,3808,-17376,1,0,0
51970,89311.00,546.39,546.24,984,3648,-17356,1,0,0
52006,89311.00,546.39,546.24,1228,3636,-17404,1,0,0
52039,89311.00,546.39,546.24,1096,3640,-17416,1,0,0
52072,89312.00,546.30,546.24,1240,3780,-17488,1,0,0
52106,89312.00,546.30,546.24,1128,3696,-17336,1,0,0
52139,89312.00,546.30,546.24,1276,3664,-17340,1,0,0
52171,89313.00,546.20,546.24,1292,3760,-17428,1,0,0
52205,89313.00,546.20,546.24,1188,3704,-17436,1,0,0
52238,89313.00,546.20,546.24,1128,3760,-17364,1,0,0
52271,89312.00,546.30,546.24,1052,3716,-17392,1,0,0
52304,89313.00,546.30,546.24,1212,3676,-17348,1,0,0
52349,89313.00,546.20,546.24,1180,3704,-17272,1,0,0
52383,89313.00,546.20,546.24,1144,3688,-17288,1,0,0
52416,89313.00,546.20,546.24,1112,3740,-17292,1,0,0
52449,89313.00,546.20,546.24,1044,3688,-17568,1,0,0
52483,89313.00,546.20,546.24,1212,3700,-17308,1,0,0
52515,89312.00,546.30,546.24,1876,4976,-20624,1,0,0
52548,89312.00,546.30,546.24,-1192,6724,-14684,1,0,0
52582,89312.00,546.30,546.24,-444,-9136,-21604,1,0,0
52615,89312.00,546.30,546.24,3044,5236,-18784,1,0,0
52647,89312.00,546.30,546.24,1200,3504,-18732,1,0,0
52695,89312.00,546.30,546.24,3916,3172,-20080,1,0,0
52728,89312.00,546.30,546.24,3656,3852,-18232,1,0,0
52761,89312.00,546.30,546.24,1508,1732,-14436,1,0,0
52794,89312.00,546.30,546.24,244,912,-14460,1,0,0
52828,89313.00,546.20,546.24,-1260,-2024,-15708,1,0,0
52860,89313.00,546.20,546.24,508,-932,-15972,1,0,0
52893,89313.00,546.20,546.24,-744,-2740,-15920,1,0,0
52927,89313.00,546.20,546.24,16312,-4580,-32768,1,0,0
52960,89312.00,546.30,546.24,19240,6344,-22568,1,0,0
52997,89312.00,546.30,546.24,736,-784,-16276,1,0,0
53029,89312.00,546.30,546.24,-380,-1108,-17020,1,0,0
53063,89312.00,546.30,546.24,652,544,-16556,1,0,0
53096,89312.00,546.30,546.24,-244,-348,-17840,1,0,0
53129,89312.00,546.30,546.24,5316,5064,-21128,1,0,0
53163,89312.00,546.30,546.24,1416,5756,-18316,1,0,0
53195,89313.00,546.20,546.24,3364,4668,-18972,1,0,0
53228,89314.00,546.11,546.24,1508,2096,-17644,1,0,0
53261,89315.00,546.02,546.24,-1756,-16,-16136,1,0,0
53295,89315.00,546.02,546.24,-1556,1152,-17264,1,0,0
53331,89315.00,546.02,546.24,2020,1324,-17712,1,0,0
53364,89316.00,545.92,546.24,1420,2256,-17276,1,0,0
53397,89317.00,545.83,546.24,976,2968,-17236,1,0,0
53430,89317.00,545.83,546.24,-10892,21460,-32768,1,0,0
53463,89317.00,545.83,546.23,116,5960,-15920,1,0,0
53495,89317.00,545.83,546.23,-444,3600,-15848,1,0,0
53528,89316.00,545.92,546.23,764,3520,-17100,1,0,0
53561,89316.00,545.92,546.23,1008,3804,-17392,1,0,0
53594,89316.00,545.92,546.23,1100,3788,-17376,1,0,0
53626,89316.00,545.92,546.23,1108,3680,-17364,1,0,0
53663,89317.00,545.83,546.23,1064,3812,-17364,1,0,0
53696,89317.00,545.83,546.23,1000,3736,-17284,1,0,0
53729,89317.00,545.83,546.23,1144,3704,-17236,1,0,0
53763,89317.00,545.83,546.23,-6032,-280,-8216,1,0,0
53795,89317.00,545.83,546.22,-1576,-300,-17972,1,0,0
53828,89316.00,545.92,546.22,4844,5660,-11584,1,0,0
53861,89316.00,545.92,546.22,1032,-1732,-20292,1,0,0
53894,89315.00,546.02,546.22,2080,3556,-17680,1,0,0
53926,89315.00,546.02,546.22,-1708,1540,-17708,1,0,0
53963,89316.00,545.92,546.22,-608,5220,-16428,1,0,0
53997,89316.00,545.92,546.22,2188,5568,-16840,1,0,0
54030,89316.00,545.92,546.22,1712,2892,-17260,1,0,0
54064,89316.00,545.92,546.22,-868,2380,-18120,1,0,0
54096,89316.00,545.92,546.22,772,2732,-17632,1,0,0
54130,89316.00,545.92,546.22,-116,2264,-17968,1,0,0
54163,89316.00,545.92,546.22,-4,2012,-17408,1,0,0
54197,89316.00,545.92,546.22,976,3292,-17532,1,0,0
54230,89316.00,545.92,546.21,200,2064,-18272,1,0,0
54272,89316.00,545.92,546.21,3992,5020,-18504,1,0,0
54309,89317.00,545.83,546.21,568,4704,-16072,1,0,0
54342,89317.00,545.83,546.21,9404,1284,-23160,1,0,0
54376,89317.00,545.83,546.21,-84,3120,-17700,1,0,0
54409,89317.00,545.83,546.21,-232,1952,-17264,1,0,0
54443,89317.00,545.83,546.21,-20,3448,-17516,1,0,0
54475,89316.00,545.92,546.21,-100,2776,-17032,1,0,0
54509,89316.00,545.92,546.21,-244,1764,-18580,1,0,0
54542,89316.00,545.92,546.21,640,2660,-17136,1,0,0
54586,89316.00,545.92,546.20,-124,1480,-15496,1,0,0
54620,89316.00,545.92,546.20,-276,3748,-15908,1,0,0
54657,89316.00,545.92,546.20,-44,4252,-15768,1,0,0
54689,89316.00,545.92,546.20,-440,1668,-19600,1,0,0
54723,89316.00,545.92,546.20,184,3472,-16440,1,0,0
54756,89316.00,545.92,546.20,-484,4652,-16876,1,0,0
54790,89316.00,545.92,546.20,-1388,196,-19724,1,0,0
54822,89316.00,545.92,546.20,-1836,2792,-17168,1,0,0
54856,89317.00,545.83,546.20,680,1160,-18464,1,0,0
54889,89317.00,545.83,546.20,2468,1212,-15820,1,0,0
54923,89317.00,545.83,546.20,688,2884,-17860,1,0,0
54960,89317.00,545.83,546.19,3364,3648,-17908,1,0,0
54992,89317.00,545.83,546.19,-692,2180,-15940,1,0,0
55026,89317.00,545.83,546.19,-200,4520,-17160,1,0,0
55059,89317.00,545.83,546.19,-2460,2692,-21292,1,0,0
55093,89317.00,545.83,546.19,-1096,1164,-14904,1,0,0
55127,89317.00,545.83,546.19,-1000,2104,-18128,1,0,0
55159,89317.00,545.83,546.19,-1556,3508,-18272,1,0,0
55193,89317.00,545.83,546.19,-164,1960,-17544,1,0,0
55226,89317.00,545.83,546.19,-124,2148,-17992,1,0,0
55260,89317.00,545.83,546.18,-1288,2660,-17760,1,0,0
55297,89317.00,545.83,546.18,-724,2100,-16624,1,0,0
55329,89317.00,545.83,546.18,-1172,2064,-17616,1,0,0
55363,89316.00,545.92,546.18,-1764,2296,-18020,1,0,0
55396,89317.00,545.83,546.18,-716,1180,-16892,1,0,0
55430,89316.00,545.92,546.18,-64,2292,-16588,1,0,0
55462,89317.00,545.83,546.18,-24,1912,-17832,1,0,0
55496,89317.00,545.83,546.18,-1196,1392,-20532,1,0,0
55529,89317.00,545.83,546.17,-1196,3128,-19668,1,0,0
55563,89317.00,545.83,546.17,-1004,1604,-11936,1,0,0
55596,89317.00,545.83,546.17,-5100,-4060,-11004,1,0,0
55633,89317.00,545.83,546.17,2568,1012,-20616,1,0,0
55666,89318.00,545.74,546.17,-17264,-2968,-22196,1,0,0
55700,89318.00,545.74,546.17,3332,5544,-19172,1,0,0
55733,89318.00,545.74,546.17,-1276,1252,-17800,1,0,0
55767,89319.00,545.64,546.16,-1652,1616,-18228,1,0,0
55799,89319.00,545.64,546.16,-692,8804,-17780,1,0,0
55833,89319.00,545.64,546.16,-812,788,-18432,1,0,0
55866,89318.00,545.74,546.16,-3176,-2408,-15504,1,0,0
55900,89318.00,545.74,546.16,2316,5520,-14552,1,0,0
55937,89319.00,545.64,546.16,-1436,6908,-15820,1,0,0
55969,89318.00,545.74,546.15,-5956,2476,-17524,1,0,0
56003,89318.00,545.74,546.15,-2228,-332,-17332,1,0,0
56036,89318.00,545.74,546.15,-1264,3500,-17152,1,0,0
56070,89318.00,545.74,546.15,-1228,1996,-17536,1,0,0
56102,89318.00,545.74,546.15,-2680,1724,-17264,1,0,0
56136,89319.00,545.64,546.15,-1740,2144,-17424,1,0,0
56178,89319.00,545.64,546.15,-1416,3424,-17364,1,0,0
56212,89319.00,545.64,546.14,-2372,2616,-17388,1,0,0
56245,89319.00,545.64,546.14,-2252,1036,-17484,1,0,0
56282,89319.00,545.64,546.14,-2352,3016,-15504,1,0,0
56315,89318.00,545.74,546.14,-3012,124,-18360,1,0,0
56348,89318.00,545.74,546.14,-7424,1908,-13232,1,0,0
56382,89318.00,545.74,546.14,-2024,932,-16984,1,0,0
56415,89318.00,545.74,546.13,-3392,2872,-12560,1,0,0
56449,89317.00,545.83,546.13,-3140,1708,-16204,1,0,0
56493,89317.00,545.83,546.13,-1504,1656,-17328,1,0,0
56526,89317.00,545.83,546.13,-696,688,-15004,1,0,0
56559,89317.00,545.83,546.13,-3460,1980,-18432,1,0,0
56596,89316.00,545.92,546.13,-2932,188,-17800,1,0,0
56630,89316.00,545.92,546.13,-4036,376,-19168,1,0,0
56663,89316.00,545.92,546.13,-944,1652,-15532,1,0,0
56696,89316.00,545.92,546.13,-2276,1348,-17368,1,0,0
