Time,Pascal,alt,KMF,ax,ay,az,LaunchTime,ApoTime,LandTime15347,89772.00,503.47,440.75,-348,16808,-1900,1,0,0
15379,89771.00,503.56,495.66,-204,16564,-1824,1,0,0
15411,89771.00,503.56,500.16,-332,16388,-1788,1,0,0
15443,89771.00,503.56,501.47,-272,16508,-1832,1,0,0
15475,89772.00,503.47,502.05,-160,16472,-1708,1,0,0
15508,89772.00,503.47,502.38,-160,16472,-1748,1,0,0
15540,89772.00,503.47,502.59,-104,16460,-1856,1,0,0
15571,89771.00,503.56,502.75,-232,16468,-1768,1,0,0
15604,89771.00,503.56,502.86,-896,16552,-992,1,0,0
15640,89771.00,503.56,502.95,-276,16760,-1540,1,0,0
15673,89772.00,503.47,503.01,-180,16568,-1800,1,0,0
15706,89771.00,503.56,503.07,-320,16540,-1496,1,0,0
15737,89771.00,503.56,503.11,-196,16448,-1672,1,0,0
15770,89771.00,503.56,503.15,-232,16528,-1768,1,0,0
15803,89771.00,503.56,503.19,1212,17464,-2780,1,0,0
15836,89771.00,503.56,503.21,424,17140,-2520,1,0,0
15867,89771.00,503.56,503.24,1144,16816,-2820,1,0,0
15900,89771.00,503.56,503.26,3084,16980,-4904,1,0,0
15933,89770.00,503.66,503.29,632,16736,-2572,1,0,0
15970,89769.00,503.75,503.31,-80,16428,-1700,1,0,0
16002,89769.00,503.75,503.34,12,16460,-1960,1,0,0
16034,89769.00,503.75,503.36,-168,16564,-1848,1,0,0
16066,89770.00,503.66,503.38,-20,16536,-1812,1,0,0
16099,89771.00,503.66,503.39,-96,16624,-1872,1,0,0
16131,89771.00,503.56,503.40,-304,16448,-1824,1,0,0
16163,89771.00,503.56,503.40,-200,16508,-1808,1,0,0
16196,89771.00,503.56,503.41,-208,16500,-1976,1,0,0
16228,89771.00,503.56,503.42,-332,16516,-1800,1,0,0
16261,89771.00,503.56,503.42,-388,16540,-1716,1,0,0
16296,89771.00,503.56,503.43,-412,16312,-1588,1,0,0
16329,89771.00,503.56,503.43,-556,16320,-1500,1,0,0
16362,89771.00,503.56,503.44,-212,16476,-1816,1,0,0
16394,89770.00,503.66,503.45,-196,16420,-1848,1,0,0
16427,89770.00,503.66,503.45,-220,16564,-1888,1,0,0
16458,89771.00,503.56,503.46,-200,16424,-1620,1,0,0
16491,89771.00,503.56,503.46,-72,16636,-1896,1,0,0
16523,89770.00,503.66,503.47,-168,16592,-1732,1,0,0
16556,89770.00,503.66,503.47,-292,16384,-1580,1,0,0
16592,89770.00,503.66,503.48,-300,16580,-1748,1,0,0
16633,89771.00,503.56,503.48,-144,16508,-1816,1,0,0
16664,89770.00,503.66,503.49,-288,16564,-1772,1,0,0
16695,89770.00,503.66,503.49,-284,16504,-1840,1,0,0
16727,89770.00,503.66,503.49,-136,16516,-1736,1,0,0
16757,89771.00,503.66,503.50,-184,16464,-1616,1,0,0
16789,89771.00,503.56,503.50,-176,16516,-1792,1,0,0
16820,89771.00,503.56,503.50,-200,16640,-1868,1,0,0
16851,89772.00,503.47,503.50,-120,16548,-1952,1,0,0
16882,89772.00,503.47,503.50,-40,16668,-1800,1,0,0
16917,89772.00,503.47,503.50,-116,16444,-1712,1,0,0
16949,89772.00,503.47,503.50,-100,16528,-1844,1,0,0
16979,89772.00,503.47,503.50,-224,16476,-1760,1,0,0
17011,89772.00,503.47,503.50,-260,16372,-1868,1,0,0
17042,89772.00,503.47,503.50,-88,16576,-1924,1,0,0
17074,89772.00,503.47,503.50,-32,16776,-2060,1,0,0
17104,89772.00,503.47,503.50,52,16276,-1968,1,0,0
17136,89772.00,503.47,503.50,-80,16596,-1904,1,0,0
17167,89772.00,503.47,503.50,88,16528,-2096,1,0,0
17198,89772.00,503.47,503.50,-420,16420,-1588,1,0,0
17233,89772.00,503.47,503.49,-84,16540,-1724,1,0,0
17264,89771.00,503.56,503.50,-220,16488,-1628,1,0,0
17295,89771.00,503.56,503.50,-36,16632,-1888,1,0,0
17327,89771.00,503.56,503.50,64,16440,-1900,1,0,0
17357,89772.00,503.47,503.50,260,16524,-2336,1,0,0
17389,89771.00,503.56,503.50,-296,16632,-1716,1,0,0
17420,89771.00,503.56,503.50,-624,16484,-1404,1,0,0
17452,89770.00,503.66,503.50,20,16564,-2052,1,0,0
17482,89771.00,503.56,503.50,-176,16560,-1740,1,0,0
17513,89771.00,503.56,503.50,-112,16572,-1880,1,0,0
17549,89771.00,503.56,503.51,-88,16432,-1852,1,0,0
17580,89770.00,503.66,503.51,-40,16440,-1936,1,0,0
17610,89770.00,503.66,503.51,-392,16436,-1672,1,0,0
17642,89771.00,503.56,503.51,-132,16520,-1888,1,0,0
17673,89771.00,503.56,503.51,-196,16412,-1772,1,0,0
17704,89772.00,503.47,503.51,-256,16452,-1840,1,0,0
17735,89772.00,503.47,503.51,-244,16480,-1740,1,0,0
17767,89771.00,503.56,503.51,-168,16532,-1660,1,0,0
17798,89772.00,503.47,503.51,-144,16532,-1776,1,0,0
17832,89772.00,503.47,503.51,-144,16508,-1812,1,0,0
17864,89772.00,503.47,503.51,-116,16608,-1772,1,0,0
17895,89772.00,503.47,503.51,-104,16452,-1812,1,0,0
17927,89772.00,503.47,503.51,-232,16400,-1780,1,0,0
17957,89772.00,503.47,503.51,-240,16484,-1944,1,0,0
17989,89772.00,503.47,503.51,-168,16448,-1848,1,0,0
18020,89771.00,503.56,503.51,-368,16540,-1616,1,0,0
18051,89771.00,503.56,503.51,-68,16480,-1832,1,0,0
18082,89771.00,503.56,503.51,-200,16552,-1668,1,0,0
18113,89771.00,503.56,503.51,-56,16432,-1892,1,0,0
18148,89771.00,503.56,503.51,-164,16564,-1768,1,0,0
18180,89771.00,503.56,503.51,-184,16532,-1792,1,0,0
18210,89771.00,503.56,503.51,-172,16672,-1832,1,0,0
18242,89771.00,503.56,503.51,-116,16592,-1832,1,0,0
18273,89771.00,503.56,503.51,-248,16384,-1836,1,0,0
18305,89771.00,503.56,503.52,-244,16496,-1676,1,0,0
18335,89771.00,503.56,503.52,-160,16488,-1888,1,0,0
18375,89770.00,503.66,503.52,-132,16452,-1828,1,0,0
18407,89771.00,503.56,503.52,-292,16596,-1872,1,0,0
18438,89771.00,503.56,503.52,-108,16448,-1796,1,0,0
18482,89771.00,503.56,503.52,-280,16416,-1764,1,0,0
18512,89771.00,503.56,503.52,-284,16380,-1824,1,0,0
18544,89772.00,503.47,503.52,-48,16528,-1808,1,0,0
18575,89772.00,503.47,503.52,-196,16388,-1696,1,0,0
18607,89772.00,503.47,503.52,-248,16548,-1748,1,0,0
18637,89772.00,503.47,503.52,-200,16492,-1800,1,0,0
18669,89772.00,503.47,503.52,-144,16528,-1932,1,0,0
18700,89772.00,503.47,503.52,-180,16500,-1880,1,0,0
18732,89772.00,503.47,503.52,-180,16420,-1728,1,0,0
18766,89772.00,503.47,503.52,-244,16524,-1776,1,0,0
18797,89772.00,503.47,503.52,-224,16416,-1736,1,0,0
18829,89771.00,503.56,503.52,-84,16632,-1836,1,0,0
18860,89771.00,503.56,503.52,-128,16536,-1756,1,0,0
18890,89771.00,503.56,503.52,-224,16532,-1868,1,0,0
18922,89772.00,503.47,503.52,-360,16372,-1868,1,0,0
18953,89772.00,503.47,503.52,-128,16500,-1952,1,0,0
18984,89772.00,503.47,503.52,-72,16564,-1860,1,0,0
19015,89772.00,503.47,503.52,-256,16584,-1740,1,0,0
19047,89772.00,503.47,503.51,-156,16500,-1732,1,0,0
19082,89772.00,503.47,503.51,-200,16460,-1972,1,0,0
19112,89771.00,503.56,503.51,-232,16484,-1780,1,0,0
19144,89772.00,503.47,503.51,-112,16564,-1824,1,0,0
19175,89771.00,503.56,503.51,-148,16548,-1776,1,0,0
19206,89771.00,503.56,503.52,-220,16408,-1744,1,0,0
19237,89770.00,503.66,503.52,-144,16424,-1720,1,0,0
19268,89770.00,503.66,503.52,-256,16436,-1716,1,0,0
19300,89770.00,503.66,503.52,-192,16564,-1864,1,0,0
19331,89771.00,503.66,503.52,-112,16344,-1752,1,0,0
19361,89770.00,503.66,503.52,-264,16520,-1704,1,0,0
19397,89769.00,503.66,503.52,-124,16572,-1844,1,0,0
19428,89769.00,503.75,503.52,-208,16480,-1668,1,0,0
19459,89769.00,503.75,503.53,-72,16488,-1940,1,0,0
19490,89769.00,503.75,503.53,-104,16416,-1872,1,0,0
19521,89769.00,503.75,503.53,-176,16476,-1828,1,0,0
19552,89769.00,503.75,503.53,-248,16524,-1844,1,0,0
19584,89769.00,503.75,503.53,-204,16544,-1928,1,0,0
19614,89770.00,503.66,503.54,-164,16440,-1836,1,0,0
19646,89770.00,503.66,503.54,-280,16504,-1904,1,0,0
19681,89770.00,503.66,503.54,-204,16524,-1700,1,0,0
19712,89770.00,503.66,503.54,-204,16592,-1872,1,0,0
19742,89771.00,503.56,503.54,-92,16588,-1764,1,0,0
19774,89771.00,503.56,503.54,-200,16468,-1836,1,0,0
19805,89771.00,503.56,503.54,-88,16508,-1856,1,0,0
19836,89771.00,503.56,503.54,-248,16548,-1832,1,0,0
19867,89770.00,503.66,503.54,-272,16464,-1568,1,0,0
19898,89771.00,503.56,503.54,-180,16488,-1888,1,0,0
19930,89771.00,503.56,503.54,-548,15992,-1484,1,0,0
19960,89771.00,503.56,503.54,44,17012,-2048,1,0,0
19995,89771.00,503.56,503.54,-116,16412,-1664,1,0,0
20027,89770.00,503.66,503.54,-272,16536,-1780,1,0,0
20058,89770.00,503.66,503.54,-88,16352,-1768,1,0,0
20088,89770.00,503.66,503.54,-252,16440,-1848,1,0,0
20120,89770.00,503.66,503.54,-216,16400,-1976,1,0,0
20151,89770.00,503.66,503.55,-272,16368,-1776,1,0,0
20191,89770.00,503.66,503.55,-184,16524,-1828,1,0,0
20222,89770.00,503.66,503.55,24,16652,-1856,1,0,0
20253,89770.00,503.66,503.55,-280,16568,-1876,1,0,0
20284,89770.00,503.66,503.55,-256,16388,-1716,1,0,0
20328,89771.00,503.56,503.55,-252,16536,-1776,1,0,0
20360,89770.00,503.66,503.55,-368,16624,-1636,1,0,0
20390,89770.00,503.66,503.55,204,16576,-2172,1,0,0
20421,89770.00,503.66,503.55,-256,16276,-1568,1,0,0
20453,89771.00,503.56,503.55,-236,16556,-1788,1,0,0
20484,89771.00,503.56,503.55,-272,16548,-1852,1,0,0
20515,89770.00,503.66,503.55,-252,16548,-1676,1,0,0
20546,89769.00,503.75,503.55,-76,16560,-1900,1,0,0
20577,89770.00,503.66,503.55,-244,16412,-1836,1,0,0
20612,89769.00,503.75,503.56,-204,16452,-1736,1,0,0
20643,89769.00,503.75,503.56,-360,16596,-1972,1,0,0
20674,89769.00,503.75,503.56,-68,16464,-1768,1,0,0
20705,89769.00,503.75,503.56,0,16672,-1852,1,0,0
20737,89769.00,503.75,503.56,-44,16572,-1848,1,0,0
20767,89769.00,503.75,503.56,-340,16468,-1776,1,0,0
20798,89769.00,503.75,503.56,-220,16508,-1828,1,0,0
20830,89768.00,503.84,503.57,-220,16524,-1776,1,0,0
20860,89769.00,503.75,503.57,-32,16528,-1900,1,0,0
20891,89769.00,503.75,503.57,-256,16344,-1788,1,0,0
20926,89769.00,503.75,503.57,-72,16548,-1808,1,0,0
20958,89769.00,503.75,503.57,-180,16484,-1644,1,0,0
20988,89769.00,503.75,503.57,-16,16592,-1880,1,0,0
21019,89769.00,503.75,503.57,-156,16560,-1896,1,0,0
21051,89768.00,503.84,503.57,-160,16312,-1736,1,0,0
21082,89768.00,503.84,503.58,-312,16532,-1840,1,0,0
21112,89767.00,503.94,503.58,-200,16592,-1768,1,0,0
21144,89767.00,503.94,503.58,-176,16532,-1944,1,0,0
21175,89768.00,503.84,503.58,-164,16340,-1740,1,0,0
21206,89767.00,503.94,503.59,-40,16476,-1772,1,0,0
21240,89767.00,503.94,503.59,-120,16444,-1896,1,0,0
21272,89767.00,503.94,503.59,-216,16360,-1960,1,0,0
21303,89767.00,503.94,503.59,-132,16488,-1932,1,0,0
21334,89767.00,503.94,503.59,-64,16540,-2064,1,0,0
21365,89768.00,503.84,503.60,-196,16504,-1836,1,0,0
21396,89768.00,503.84,503.60,-144,16536,-1760,1,0,0
21427,89768.00,503.84,503.60,-324,16528,-1724,1,0,0
21458,89767.00,503.94,503.60,-256,16480,-1848,1,0,0
21489,89766.00,504.03,503.60,-200,16500,-1716,1,0,0
21520,89767.00,503.94,503.61,-252,16588,-1832,1,0,0
21555,89767.00,503.94,503.61,-192,16512,-1864,1,0,0
21586,89767.00,503.94,503.61,-140,16560,-1792,1,0,0
21617,89767.00,503.94,503.61,-180,16576,-1788,1,0,0
21648,89768.00,503.84,503.62,-44,16456,-1848,1,0,0
21680,89768.00,503.84,503.62,-316,16412,-1836,1,0,0
21710,89768.00,503.84,503.62,48,16644,-1996,1,0,0
21741,89768.00,503.84,503.62,-260,16412,-1684,1,0,0
21773,89768.00,503.84,503.62,-312,16584,-1680,1,0,0
21804,89768.00,503.84,503.62,-148,16528,-1748,1,0,0
21838,89768.00,503.84,503.62,-16,16528,-1904,1,0,0
21869,89767.00,503.94,503.63,-260,16476,-1620,1,0,0
21901,89767.00,503.94,503.63,-168,16552,-1788,1,0,0
21932,89766.00,504.03,503.63,-88,16628,-1836,1,0,0
21971,89766.00,504.03,503.63,-136,16524,-1824,1,0,0
22003,89766.00,504.03,503.64,-228,16448,-1776,1,0,0
22034,89766.00,504.03,503.64,-96,16512,-1816,1,0,0
22065,89766.00,504.03,503.64,-100,16544,-1804,1,0,0
22095,89766.00,504.03,503.64,-96,16564,-1920,1,0,0
22127,89766.00,504.03,503.65,-152,16568,-1864,1,0,0
22171,89767.00,503.94,503.65,-208,16596,-1720,1,0,0
22202,89767.00,503.94,503.65,-252,16596,-1768,1,0,0
22233,89767.00,503.94,503.65,-180,16424,-1840,1,0,0
22264,89767.00,503.94,503.65,-132,16500,-1736,1,0,0
22295,89767.00,503.94,503.66,-256,16544,-1764,1,0,0
22326,89767.00,503.94,503.66,-80,16492,-1816,1,0,0
22358,89767.00,503.94,503.66,-224,16504,-1792,1,0,0
22388,89767.00,503.94,503.66,-192,16560,-1996,1,0,0
22419,89767.00,503.94,503.66,-224,16536,-1848,1,0,0
22451,89767.00,503.94,503.67,-192,16496,-1676,1,0,0
22486,89767.00,503.94,503.67,-284,16384,-1840,1,0,0
22516,89767.00,503.94,503.67,-104,16584,-1828,1,0,0
22547,89767.00,503.94,503.67,-132,16592,-1864,1,0,0
22579,89768.00,503.84,503.67,-312,16356,-1756,1,0,0
22609,89767.00,503.94,503.67,-184,16464,-1760,1,0,0
22640,89767.00,503.94,503.68,-268,16632,-1768,1,0,0
22672,89767.00,503.94,503.68,-96,16564,-1884,1,0,0
22703,89767.00,503.94,503.68,-144,16576,-1920,1,0,0
22733,89767.00,503.94,503.68,-208,16436,-1688,1,0,0
22768,89768.00,503.84,503.68,-164,16604,-1912,1,0,0
22800,89768.00,503.84,503.68,-140,16504,-1916,1,0,0
22831,89767.00,503.94,503.68,-172,16432,-1796,1,0,0
22861,89768.00,503.84,503.68,-160,16420,-1792,1,0,0
22893,89768.00,503.84,503.69,-220,16508,-1840,1,0,0
22924,89767.00,503.94,503.69,-176,16508,-1904,1,0,0
22955,89768.00,503.84,503.69,-68,16512,-1808,1,0,0
22986,89767.00,503.94,503.69,-276,16328,-1756,1,0,0
23017,89767.00,503.94,503.69,-88,16576,-1856,1,0,0
23048,89768.00,503.94,503.69,-128,16596,-1804,1,0,0
23083,89768.00,503.84,503.69,-100,16564,-1688,1,0,0
23113,89768.00,503.84,503.70,-28,16596,-1764,1,0,0
23145,89768.00,503.84,503.70,-156,16544,-1936,1,0,0
23176,89768.00,503.84,503.70,-216,16400,-1844,1,0,0
23206,89767.00,503.94,503.70,-144,16456,-1708,1,0,0
23238,89766.00,504.03,503.70,-116,16556,-1816,1,0,0
23269,89767.00,503.94,503.70,-100,16480,-1808,1,0,0
23300,89766.00,504.03,503.70,-176,16516,-1748,1,0,0
23330,89766.00,504.03,503.71,-84,16528,-1868,1,0,0
23362,89766.00,504.03,503.71,-300,16468,-1708,1,0,0
23397,89767.00,503.94,503.71,-100,16500,-1892,1,0,0
23428,89766.00,504.03,503.71,-228,16452,-1832,1,0,0
23458,89766.00,504.03,503.71,-120,16516,-1816,1,0,0
23490,89766.00,504.03,503.72,-236,16484,-1816,1,0,0
23521,89766.00,504.03,503.72,-340,16400,-1800,1,0,0
23552,89765.00,504.12,503.72,-200,16516,-1820,1,0,0
23583,89766.00,504.03,503.72,-148,16536,-1912,1,0,0
23614,89766.00,504.03,503.72,-136,16588,-1824,1,0,0
23645,89766.00,504.03,503.73,-208,16448,-1844,1,0,0
23680,89766.00,504.03,503.73,-472,16564,-1536,1,0,0
23710,89766.00,504.03,503.73,-316,16444,-1668,1,0,0
23742,89767.00,503.94,503.73,-620,16372,-1080,1,0,0
23782,89766.00,504.03,503.73,-184,16504,-1460,1,0,0
23813,89766.00,504.03,503.73,-4,16420,-1736,1,0,0
23843,89766.00,504.03,503.74,24,16412,-2056,1,0,0
23875,89765.00,504.12,503.74,-220,16532,-1732,1,0,0
23906,89765.00,504.03,503.74,-276,16448,-1772,1,0,0
23937,89765.00,504.12,503.74,-204,16412,-1800,1,0,0
23976,89765.00,504.12,503.75,-112,16480,-1760,1,0,0
24011,89765.00,504.12,503.75,-256,16464,-1764,1,0,0
24043,89765.00,504.12,503.75,-204,16492,-1812,1,0,0
24074,89765.00,504.12,503.75,-180,16632,-1816,1,0,0
24104,89766.00,504.03,503.75,-248,16636,-1732,1,0,0
24135,89765.00,504.12,503.76,-236,16344,-1872,1,0,0
24167,89765.00,504.12,503.76,-156,16564,-1848,1,0,0
24198,89765.00,504.12,503.76,1260,16316,-3684,1,0,0
24228,89765.00,504.12,503.76,-2404,15812,136,1,0,0
24259,89765.00,504.12,503.77,-748,16372,-444,1,0,0
24291,89765.00,504.12,503.77,1128,16832,-2948,1,0,0
24326,89765.00,504.12,503.77,-672,17024,-1648,1,0,0
24356,89765.00,504.12,503.77,-624,16344,-2356,1,0,0
24387,89765.00,504.12,503.77,584,17236,-2676,1,0,0
24418,89765.00,504.12,503.78,-460,16436,-1160,1,0,0
24450,89765.00,504.12,503.78,-132,16668,-1896,1,0,0
24480,89765.00,504.12,503.78,108,16512,-2368,1,0,0
24511,89765.00,504.12,503.78,-524,16484,-1424,1,0,0
24542,89765.00,504.12,503.79,352,16452,-2292,1,0,0
24573,89765.00,504.12,503.79,-156,16604,-1736,1,0,0
24604,89765.00,504.12,503.79,-472,16480,-1580,1,0,0
24639,89765.00,504.12,503.79,-224,16464,-1668,1,0,0
24670,89765.00,504.12,503.79,360,16584,-2348,1,0,0
24700,89765.00,504.12,503.80,2080,16496,-4440,1,0,0
24732,89765.00,504.12,503.80,-1868,16484,-224,1,0,0
24763,89765.00,504.12,503.80,-180,16424,-1636,1,0,0
24794,89765.00,504.12,503.80,360,16412,-2284,1,0,0
24824,89765.00,504.12,503.80,-176,16544,-1808,1,0,0
24855,89767.00,503.94,503.80,-196,16460,-1784,1,0,0
24887,89767.00,503.94,503.81,-340,16508,-1696,1,0,0
24922,89766.00,504.03,503.81,-168,16564,-1840,1,0,0
24952,89766.00,504.03,503.81,-200,16432,-1772,1,0,0
24983,89765.00,504.03,503.81,-224,16488,-1800,1,0,0
25014,89765.00,504.12,503.81,-212,16596,-1776,1,0,0
25044,89765.00,504.12,503.81,-128,16412,-1868,1,0,0
25075,89764.00,504.21,503.82,-56,16432,-1760,1,0,0
25106,89764.00,504.21,503.82,-216,16536,-1860,1,0,0
25137,89766.00,504.12,503.82,-188,16500,-1884,1,0,0
25167,89766.00,504.03,503.82,-152,16620,-1832,1,0,0
25198,89765.00,504.12,503.82,-120,16512,-1880,1,0,0
25233,89766.00,504.03,503.83,-132,16468,-1900,1,0,0
25264,89766.00,504.03,503.83,-208,16352,-1700,1,0,0
25294,89766.00,504.03,503.83,-120,16500,-1784,1,0,0
25325,89766.00,504.03,503.83,4,16592,-1796,1,0,0
25356,89766.00,504.03,503.83,-196,16452,-1872,1,0,0
25387,89767.00,503.94,503.83,-136,16468,-1992,1,0,0
25417,89767.00,503.94,503.83,-132,16468,-1732,1,0,0
25448,89767.00,503.94,503.83,-256,16416,-1932,1,0,0
25479,89766.00,504.03,503.83,-308,16504,-1876,1,0,0
25509,89766.00,504.03,503.83,-108,16592,-1828,1,0,0
25553,89766.00,504.03,503.84,-248,16512,-1764,1,0,0
25584,89766.00,504.03,503.84,-380,16396,-1800,1,0,0
25616,89766.00,504.03,503.84,-96,16616,-1960,1,0,0
25647,89766.00,504.03,503.84,-208,16460,-1804,1,0,0
25678,89766.00,504.03,503.84,-264,16512,-1804,1,0,0
25709,89767.00,503.94,503.84,-220,16540,-1852,1,0,0
25741,89766.00,504.03,503.84,-216,16424,-1704,1,0,0
25772,89767.00,503.94,503.84,-176,16400,-1864,1,0,0
25812,89767.00,503.94,503.84,-172,16424,-1720,1,0,0
25847,89768.00,503.84,503.84,-284,16500,-1844,1,0,0
25879,89768.00,503.84,503.84,-244,16460,-1792,1,0,0
25910,89768.00,503.84,503.84,-116,16576,-1832,1,0,0
25942,89768.00,503.84,503.84,-56,16572,-1736,1,0,0
25972,89768.00,503.84,503.84,-208,16372,-1740,1,0,0
26004,89768.00,503.84,503.84,-208,16424,-1928,1,0,0
26035,89767.00,503.94,503.84,-192,16516,-1836,1,0,0
26066,89767.00,503.94,503.84,-116,16532,-1808,1,0,0
26097,89767.00,503.94,503.84,-232,16376,-1848,1,0,0
26129,89767.00,503.94,503.85,-204,16680,-1888,1,0,0
26164,89767.00,503.94,503.85,-260,16492,-1744,1,0,0
26194,89766.00,504.03,503.85,-280,16508,-1776,1,0,0
26226,89766.00,504.03,503.85,-60,16600,-1856,1,0,0
26257,89766.00,504.03,503.85,-148,16504,-1864,1,0,0
26289,89766.00,504.03,503.85,-160,16560,-1780,1,0,0
26319,89766.00,504.03,503.85,-120,16568,-1600,1,0,0
26351,89766.00,504.03,503.85,-84,16712,-1852,1,0,0
26382,89766.00,504.03,503.85,-1140,16768,-752,1,0,0
26413,89767.00,503.94,503.85,376,16524,-2316,1,0,0
26444,89767.00,503.94,503.85,-136,16572,-1972,1,0,0
26479,89767.00,503.94,503.85,-552,16228,-1584,1,0,0
26511,89767.00,503.94,503.86,-416,16544,-1496,1,0,0
26542,89767.00,503.94,503.86,-1264,16852,-1468,1,0,0
26573,89766.00,504.03,503.86,1396,15384,-2180,1,0,0
26604,89766.00,504.03,503.86,-884,17336,-1128,1,0,0
26635,89766.00,504.03,503.86,-976,15236,-776,1,0,0
26667,89766.00,504.03,503.86,-388,16588,-1740,1,0,0
26697,89766.00,504.03,503.86,40,16440,-1920,1,0,0
26729,89766.00,504.03,503.86,1460,16168,-3428,1,0,0
26760,89766.00,504.03,503.86,-380,16456,-1704,1,0,0
26788,89767.00,503.94,503.86,1204,16440,-2860,1,0,0
26820,89767.00,503.94,503.86,392,16560,-2184,1,0,0
26851,89768.00,503.84,503.86,-264,16556,-1752,1,0,0
26883,89766.00,504.03,503.86,-392,16452,-1644,1,0,0
26913,89766.00,504.03,503.86,-148,16488,-1972,1,0,0
26944,89766.00,504.03,503.87,-64,16660,-1792,1,0,0
26976,89766.00,504.03,503.87,-240,16584,-1832,1,0,0
27006,89766.00,504.03,503.87,-268,16500,-1952,1,0,0
27038,89766.00,504.03,503.87,-100,16400,-1732,1,0,0
27073,89766.00,504.03,503.87,-232,16580,-1764,1,0,0
27104,89766.00,504.03,503.87,-256,16564,-1904,1,0,0
27136,89767.00,503.94,503.87,-76,16504,-1752,1,0,0
27166,89767.00,503.94,503.87,-200,16456,-1756,1,0,0
27198,89768.00,503.84,503.87,-192,16448,-1848,1,0,0
27229,89768.00,503.84,503.87,-152,16564,-1888,1,0,0
27260,89768.00,503.84,503.87,-108,16528,-1824,1,0,0
27291,89768.00,503.84,503.87,-280,16428,-1892,1,0,0
27323,89767.00,503.94,503.87,-200,16452,-1808,1,0,0
27354,89767.00,503.94,503.87,-272,16516,-1688,1,0,0
27398,89767.00,503.94,503.87,-224,16464,-1872,1,0,0
27428,89767.00,503.94,503.87,-100,16556,-1724,1,0,0
27460,89768.00,503.84,503.87,-212,16516,-1780,1,0,0
27491,89768.00,503.84,503.87,-152,16416,-1860,1,0,0
27523,89769.00,503.75,503.87,-152,16444,-1788,1,0,0
27553,89769.00,503.75,503.87,-256,16508,-1840,1,0,0
27585,89769.00,503.75,503.87,-144,16528,-1876,1,0,0
27626,89769.00,503.75,503.87,-152,16604,-1800,1,0,0
27657,89768.00,503.84,503.87,-196,16388,-1900,1,0,0
27687,89768.00,503.94,503.87,-64,16504,-1820,1,0,0
27723,89768.00,503.84,503.87,-256,16624,-1728,1,0,0
27754,89767.00,503.94,503.87,-164,16600,-1844,1,0,0
27785,89767.00,503.94,503.87,-176,16528,-1688,1,0,0
27816,89767.00,503.94,503.87,-56,16436,-1700,1,0,0
27847,89767.00,503.94,503.87,-176,16504,-1752,1,0,0
27879,89768.00,503.84,503.87,-40,16564,-1808,1,0,0
27910,89768.00,503.84,503.87,-112,16468,-1864,1,0,0
27941,89767.00,503.94,503.87,-196,16424,-1876,1,0,0
27972,89768.00,503.84,503.87,-200,16444,-1780,1,0,0
28007,89767.00,503.94,503.87,-196,16492,-1912,1,0,0
28039,89768.00,503.84,503.87,-200,16512,-1828,1,0,0
28069,89768.00,503.84,503.87,-64,16568,-1776,1,0,0
28101,89767.00,503.94,503.87,-116,16416,-1748,1,0,0
28132,89767.00,503.94,503.87,-248,16532,-1700,1,0,0
28163,89767.00,503.94,503.87,-108,16560,-1876,1,0,0
28194,89767.00,503.94,503.87,-56,16528,-1872,1,0,0
28225,89768.00,503.84,503.87,-216,16436,-1816,1,0,0
28257,89768.00,503.84,503.87,-188,16440,-1860,1,0,0
28288,89767.00,503.94,503.87,-196,16452,-1816,1,0,0
28322,89768.00,503.84,503.87,-124,16520,-1724,1,0,0
28354,89768.00,503.84,503.87,-152,16600,-1912,1,0,0
28385,89768.00,503.84,503.87,-332,16536,-1836,1,0,0
28417,89768.00,503.84,503.87,-296,16472,-1688,1,0,0
28447,89768.00,503.84,503.87,-200,16508,-1844,1,0,0
28478,89768.00,503.84,503.87,-160,16608,-1792,1,0,0
28510,89767.00,503.94,503.87,-148,16476,-1800,1,0,0
28540,89767.00,503.94,503.87,-132,16452,-1888,1,0,0
28572,89767.00,503.94,503.87,-48,16536,-1960,1,0,0
28603,89767.00,503.94,503.87,-108,16548,-1908,1,0,0
28638,89767.00,503.94,503.87,-36,16496,-1820,1,0,0
28669,89767.00,503.94,503.87,-132,16484,-1752,1,0,0
28700,89767.00,503.94,503.87,-372,16480,-1852,1,0,0
28732,89767.00,503.94,503.87,-64,16492,-1808,1,0,0
28763,89767.00,503.94,503.87,-176,16452,-1864,1,0,0
28793,89766.00,504.03,503.87,-140,16516,-1772,1,0,0
28825,89766.00,504.03,503.87,-236,16412,-1708,1,0,0
28856,89765.00,504.12,503.88,-108,16548,-1844,1,0,0
28888,89766.00,504.03,503.88,-200,16616,-1816,1,0,0
28922,89766.00,504.03,503.88,-204,16520,-1804,1,0,0
28953,89767.00,503.94,503.88,-128,16560,-1928,1,0,0
28985,89767.00,503.94,503.88,-336,16456,-1672,1,0,0
29016,89767.00,503.94,503.88,-120,16508,-1880,1,0,0
29046,89767.00,503.94,503.88,-180,16600,-1888,1,0,0
29078,89767.00,503.94,503.88,-176,16536,-1752,1,0,0
29109,89768.00,503.84,503.88,-232,16436,-1664,1,0,0
29140,89769.00,503.75,503.88,-76,16524,-1808,1,0,0
29180,89769.00,503.75,503.88,-176,16472,-1820,1,0,0
29211,89769.00,503.75,503.88,-224,16628,-1800,1,0,0
29246,89768.00,503.84,503.88,-108,16588,-1836,1,0,0
29278,89768.00,503.84,503.88,-140,16432,-1816,1,0,0
29308,89768.00,503.84,503.88,-252,16444,-1780,1,0,0
29340,89768.00,503.84,503.88,-172,16512,-1864,1,0,0
29371,89769.00,503.75,503.88,-124,16556,-1896,1,0,0
29402,89769.00,503.75,503.87,-276,16440,-1896,1,0,0
29443,89770.00,503.66,503.87,-100,16524,-1852,1,0,0
29474,89770.00,503.66,503.87,-120,16464,-1816,1,0,0
29505,89769.00,503.75,503.87,-84,16584,-1900,1,0,0
29536,89770.00,503.66,503.87,-192,16604,-1852,1,0,0
29572,89769.00,503.75,503.87,-224,16508,-1712,1,0,0
29602,89769.00,503.75,503.87,-308,16504,-1820,1,0,0
29633,89770.00,503.66,503.87,-152,16476,-1828,1,0,0
29665,89770.00,503.66,503.87,-208,16480,-1768,1,0,0
29696,89771.00,503.56,503.87,-224,16520,-1852,1,0,0
29727,89771.00,503.56,503.87,-112,16520,-1904,1,0,0
29758,89770.00,503.66,503.87,-188,16436,-1792,1,0,0
29789,89770.00,503.66,503.86,-60,16628,-1884,1,0,0
29820,89770.00,503.66,503.86,-224,16424,-1804,1,0,0
29855,89770.00,503.66,503.86,-128,16492,-1772,1,0,0
29886,89770.00,503.56,503.86,-56,16420,-1912,1,0,0
29918,89770.00,503.66,503.86,-168,16524,-1916,1,0,0
29948,89770.00,503.66,503.86,-116,16508,-1928,1,0,0
29979,89770.00,503.66,503.86,-268,16456,-1864,1,0,0
30011,89769.00,503.75,503.86,-280,16448,-1856,1,0,0
30042,89769.00,503.75,503.86,-228,16464,-1816,1,0,0
30073,89769.00,503.75,503.86,-168,16564,-1604,1,0,0
30104,89770.00,503.66,503.86,-176,16572,-1824,1,0,0
30135,89771.00,503.56,503.86,-232,16392,-1872,1,0,0
30170,89771.00,503.56,503.85,-144,16460,-1784,1,0,0
30201,89771.00,503.56,503.85,-164,16420,-1940,1,0,0
30232,89771.00,503.56,503.85,-148,16524,-1820,1,0,0
30264,89771.00,503.56,503.85,-228,16548,-1804,1,0,0
30295,89771.00,503.56,503.85,-232,16528,-1876,1,0,0
30325,89770.00,503.66,503.85,-176,16404,-1712,1,0,0
30357,89770.00,503.66,503.85,-100,16564,-1828,1,0,0
30388,89770.00,503.66,503.85,-124,16580,-1712,1,0,0
30418,89770.00,503.66,503.85,-244,16396,-1808,1,0,0
30450,89770.00,503.66,503.85,-108,16568,-1872,1,0,0
30485,89771.00,503.56,503.84,-224,16444,-1968,1,0,0
30516,89771.00,503.56,503.84,-80,16456,-1788,1,0,0
30546,89771.00,503.56,503.84,-228,16540,-1816,1,0,0
30578,89770.00,503.66,503.84,-152,16388,-1888,1,0,0
30609,89770.00,503.66,503.84,-240,16460,-1796,1,0,0
30640,89771.00,503.56,503.84,-8,16468,-1908,1,0,0
30671,89771.00,503.56,503.84,-204,16464,-1752,1,0,0
30702,89770.00,503.66,503.84,-264,16468,-1852,1,0,0
30733,89770.00,503.66,503.84,-88,16616,-1912,1,0,0
30768,89770.00,503.66,503.84,-236,16536,-1792,1,0,0
30799,89770.00,503.66,503.84,-200,16472,-1844,1,0,0
30830,89770.00,503.66,503.84,-64,16540,-1744,1,0,0
30862,89771.00,503.56,503.83,-248,16424,-1792,1,0,0
30893,89770.00,503.66,503.83,-96,16424,-1820,1,0,0
30923,89770.00,503.66,503.83,-184,16504,-2048,1,0,0
30955,89771.00,503.56,503.83,-264,16444,-1720,1,0,0
30995,89771.00,503.56,503.83,-304,16512,-1732,1,0,0
31026,89771.00,503.56,503.83,-88,16464,-1912,1,0,0
31056,89771.00,503.56,503.83,-184,16544,-1644,1,0,0
31091,89771.00,503.56,503.83,-200,16636,-1904,1,0,0
31123,89771.00,503.56,503.83,-268,16428,-1640,1,0,0
31154,89771.00,503.56,503.82,-236,16472,-2036,1,0,0
31184,89771.00,503.56,503.82,-232,16584,-1784,1,0,0
31216,89772.00,503.47,503.82,-108,16492,-1732,1,0,0
31257,89773.00,503.38,503.82,-252,16560,-1836,1,0,0
31288,89773.00,503.38,503.82,-240,16640,-1900,1,0,0
31319,89774.00,503.28,503.82,-196,16372,-1688,1,0,0
31350,89772.00,503.47,503.81,-200,16528,-1828,1,0,0
31381,89772.00,503.47,503.81,-156,16504,-1800,1,0,0
31416,89772.00,503.47,503.81,-144,16528,-1796,1,0,0
31448,89771.00,503.56,503.81,-144,16516,-1804,1,0,0
31478,89770.00,503.66,503.81,-180,16384,-1700,1,0,0
31509,89770.00,503.66,503.81,-272,16488,-1872,1,0,0
31541,89770.00,503.66,503.81,-176,16484,-1864,1,0,0
31571,89771.00,503.56,503.81,-228,16292,-1780,1,0,0
31602,89771.00,503.56,503.81,-140,16508,-1848,1,0,0
31634,89771.00,503.56,503.81,-256,16456,-1844,1,0,0
31665,89772.00,503.47,503.80,-104,16548,-1732,1,0,0
31699,89772.00,503.47,503.80,-72,16584,-1820,1,0,0
31730,89771.00,503.56,503.80,-92,16468,-1672,1,0,0
31762,89771.00,503.56,503.80,-140,16484,-1880,1,0,0
31793,89771.00,503.56,503.80,-192,16512,-1800,1,0,0
31823,89770.00,503.66,503.80,-88,16552,-1840,1,0,0
31855,89771.00,503.56,503.80,-224,16468,-1796,1,0,0
31886,89771.00,503.56,503.80,-288,16440,-1704,1,0,0
31917,89772.00,503.47,503.80,-48,16548,-1760,1,0,0
31948,89772.00,503.47,503.79,-136,16536,-1780,1,0,0
31979,89772.00,503.47,503.79,-176,16408,-1740,1,0,0
32014,89772.00,503.47,503.79,-160,16580,-1884,1,0,0
32045,89772.00,503.47,503.79,-140,16488,-1900,1,0,0
32076,89772.00,503.47,503.79,-120,16632,-1808,1,0,0
32107,89772.00,503.47,503.79,-168,16560,-1924,1,0,0
32138,89772.00,503.47,503.79,-208,16356,-1860,1,0,0
32169,89772.00,503.47,503.78,-280,16460,-1752,1,0,0
32200,89770.00,503.66,503.78,-268,16564,-1752,1,0,0
32231,89770.00,503.66,503.78,-176,16468,-1780,1,0,0
32263,89770.00,503.66,503.78,-232,16436,-1768,1,0,0
32293,89770.00,503.66,503.78,-44,16540,-1820,1,0,0
32328,89771.00,503.56,503.78,-220,16440,-1868,1,0,0
32359,89770.00,503.66,503.78,-236,16496,-1732,1,0,0
32391,89770.00,503.66,503.78,-160,16548,-1744,1,0,0
32421,89770.00,503.66,503.78,-240,16484,-1844,1,0,0
32452,89770.00,503.66,503.78,-200,16408,-1764,1,0,0
32484,89770.00,503.66,503.78,-304,16528,-1824,1,0,0
32515,89771.00,503.56,503.78,-276,16568,-1860,1,0,0
32545,89770.00,503.66,503.78,-212,16396,-1812,1,0,0
32577,89770.00,503.66,503.78,-168,16592,-1772,1,0,0
32608,89770.00,503.66,503.78,-64,16684,-1888,1,0,0
32643,89770.00,503.66,503.78,-84,16632,-1836,1,0,0
32673,89770.00,503.66,503.77,-208,16664,-1804,1,0,0
32705,89771.00,503.56,503.77,-220,16512,-1776,1,0,0
32736,89771.00,503.56,503.77,-128,16520,-1804,1,0,0
32776,89770.00,503.66,503.77,-160,16556,-1876,1,0,0
32807,89770.00,503.66,503.77,-164,16408,-1748,1,0,0
32838,89770.00,503.66,503.77,-220,16376,-1884,1,0,0
32869,89770.00,503.66,503.77,-64,16564,-1936,1,0,0
32901,89771.00,503.56,503.77,-88,16504,-1896,1,0,0
32935,89770.00,503.66,503.77,-140,16548,-2040,1,0,0
32966,89770.00,503.66,503.77,-380,16608,-1752,1,0,0
32997,89770.00,503.66,503.77,-304,16516,-1828,1,0,0
33029,89770.00,503.66,503.77,-140,16400,-1748,1,0,0
33069,89770.00,503.66,503.77,-168,16512,-1788,1,0,0
33100,89770.00,503.66,503.77,-216,16616,-1772,1,0,0
33131,89770.00,503.66,503.77,-256,16412,-1928,1,0,0
33162,89770.00,503.66,503.77,-224,16468,-1824,1,0,0
33192,89770.00,503.66,503.77,-172,16496,-1900,1,0,0
33224,89770.00,503.66,503.77,-172,16528,-1800,1,0,0
33259,89770.00,503.66,503.77,-72,16516,-1748,1,0,0
33290,89770.00,503.66,503.76,-220,16564,-1716,1,0,0
33320,89770.00,503.66,503.76,-244,16496,-1840,1,0,0
33352,89770.00,503.66,503.76,-116,16500,-1892,1,0,0
33383,89770.00,503.75,503.76,-104,16608,-1888,1,0,0
33414,89769.00,503.75,503.76,-160,16476,-1776,1,0,0
33445,89769.00,503.75,503.76,-192,16372,-1792,1,0,0
33476,89769.00,503.75,503.76,-176,16448,-1744,1,0,0
33507,89770.00,503.66,503.76,-144,16552,-1944,1,0,0
33538,89771.00,503.56,503.76,-200,16528,-1888,1,0,0
33573,89771.00,503.56,503.76,-252,16412,-1832,1,0,0
33604,89770.00,503.66,503.76,-44,16576,-1808,1,0,0
33635,89770.00,503.66,503.76,-116,16672,-1796,1,0,0
33666,89770.00,503.66,503.76,-216,16500,-1756,1,0,0
33697,89770.00,503.66,503.76,-168,16652,-1740,1,0,0
33728,89769.00,503.75,503.76,-232,16448,-1692,1,0,0
33759,89769.00,503.75,503.76,-184,16560,-1800,1,0,0
33789,89769.00,503.75,503.76,-200,16292,-1736,1,0,0
33821,89769.00,503.75,503.76,-188,16636,-1820,1,0,0
33856,89768.00,503.84,503.76,-152,16548,-1856,1,0,0
33887,89767.00,503.94,503.76,-224,16592,-1820,1,0,0
33917,89768.00,503.84,503.76,-88,16616,-1860,1,0,0
33949,89769.00,503.75,503.76,-112,16472,-1836,1,0,0
33980,89769.00,503.75,503.76,-80,16496,-1744,1,0,0
34011,89769.00,503.75,503.76,-108,16468,-1912,1,0,0
34041,89769.00,503.75,503.76,-244,16480,-1780,1,0,0
34073,89770.00,503.66,503.76,-288,16572,-1768,1,0,0
34104,89770.00,503.66,503.76,-184,16516,-1676,1,0,0
34135,89769.00,503.75,503.76,-32,16484,-1948,1,0,0
34169,89769.00,503.75,503.76,-180,16544,-1908,1,0,0
34201,89769.00,503.75,503.76,-192,16528,-1772,1,0,0
34232,89768.00,503.84,503.76,-76,16464,-1920,1,0,0
34263,89769.00,503.84,503.76,-112,16412,-1872,1,0,0
34293,89768.00,503.84,503.76,-112,16512,-1716,1,0,0
34325,89768.00,503.84,503.76,-176,16444,-1860,1,0,0
34356,89768.00,503.84,503.76,-328,16508,-1928,1,0,0
34386,89768.00,503.84,503.76,-124,16512,-1888,1,0,0
34418,89769.00,503.75,503.76,-112,16532,-1808,1,0,0
34449,89769.00,503.75,503.76,-268,16432,-1828,1,0,0
34484,89769.00,503.75,503.76,-184,16476,-1732,1,0,0
34514,89769.00,503.75,503.76,-216,16532,-1728,1,0,0
34545,89768.00,503.84,503.76,-176,16556,-1796,1,0,0
34585,89769.00,503.75,503.76,-64,16436,-1808,1,0,0
34617,89769.00,503.75,503.76,-40,16428,-1872,1,0,0
34648,89769.00,503.75,503.76,-144,16488,-1836,1,0,0
34678,89769.00,503.75,503.76,-156,16572,-1720,1,0,0
34710,89769.00,503.75,503.76,-116,16536,-1748,1,0,0
34741,89769.00,503.75,503.76,-152,16456,-1944,1,0,0
34776,89769.00,503.75,503.76,-112,16564,-1788,1,0,0
34806,89769.00,503.75,503.76,-84,16476,-1812,1,0,0
34837,89769.00,503.75,503.76,-188,16440,-1800,1,0,0
34877,89769.00,503.75,503.76,-220,16628,-1768,1,0,0
34908,89769.00,503.75,503.76,-260,16416,-1596,1,0,0
34939,89769.00,503.75,503.76,-256,16448,-1836,1,0,0
34970,89769.00,503.75,503.76,-188,16540,-2008,1,0,0
35001,89769.00,503.75,503.76,-300,16504,-1784,1,0,0
35032,89769.00,503.75,503.76,-184,16420,-1816,1,0,0
35062,89768.00,503.84,503.76,-136,16564,-1788,1,0,0
35180,89770.00,503.66,503.76,-108,16548,-1792,1,0,0
35213,89770.00,503.66,503.76,-72,16552,-1896,1,0,0
35247,89769.00,503.75,503.76,-188,16556,-1712,1,0,0
35279,89770.00,503.66,503.76,-148,16552,-1772,1,0,0
35313,89770.00,503.66,503.76,-120,16476,-1884,1,0,0
35346,89770.00,503.66,503.76,-52,16620,-1956,1,0,0
35380,89770.00,503.66,503.76,-68,16572,-1840,1,0,0
35412,89770.00,503.66,503.76,-120,16556,-1904,1,0,0
35445,89770.00,503.66,503.76,-164,16456,-1840,1,0,0
35479,89770.00,503.66,503.76,-252,16472,-1732,1,0,0
35516,89770.00,503.66,503.76,-332,16400,-1716,1,0,0
35550,89770.00,503.66,503.76,-148,16576,-1752,1,0,0
35584,89770.00,503.66,503.76,-196,16460,-1924,1,0,0
35617,89769.00,503.75,503.76,-248,16488,-1892,1,0,0
35650,89770.00,503.75,503.76,-208,16528,-1844,1,0,0
35684,89770.00,503.66,503.76,-204,16432,-1948,1,0,0
35718,89770.00,503.66,503.76,-136,16448,-1776,1,0,0
35751,89770.00,503.66,503.76,-268,16412,-1616,1,0,0
35785,89770.00,503.66,503.76,-356,16436,-1732,1,0,0
35822,89771.00,503.56,503.75,-88,16564,-1992,1,0,0
35856,89771.00,503.56,503.75,-16,16668,-1960,1,0,0
35890,89771.00,503.56,503.75,-20,16588,-2028,1,0,0
35923,89770.00,503.66,503.75,-48,16604,-1884,1,0,0
35956,89770.00,503.66,503.75,-188,16612,-1848,1,0,0
35990,89770.00,503.66,503.75,-200,16656,-1852,1,0,0
36024,89770.00,503.56,503.75,-12,16540,-1864,1,0,0
36058,89770.00,503.66,503.75,-184,16524,-1800,1,0,0
36091,89770.00,503.66,503.75,-140,16524,-1896,1,0,0
36124,89770.00,503.66,503.75,-164,16480,-1872,1,0,0
36162,89770.00,503.66,503.75,-216,16528,-1820,1,0,0
36196,89771.00,503.56,503.75,-140,16480,-1980,1,0,0
36230,89770.00,503.66,503.75,-136,16512,-1960,1,0,0
36263,89770.00,503.66,503.75,-172,16612,-1768,1,0,0
36296,89769.00,503.75,503.75,-208,16560,-1868,1,0,0
36330,89769.00,503.75,503.75,-168,16508,-1768,1,0,0
36364,89769.00,503.75,503.75,-196,16608,-1756,1,0,0
36398,89769.00,503.75,503.75,-248,16492,-1904,1,0,0
36431,89769.00,503.75,503.75,-56,16484,-1832,1,0,0
36464,89768.00,503.84,503.75,-180,16676,-1884,1,0,0
36511,89767.00,503.94,503.75,-252,16560,-1844,1,0,0
36545,89767.00,503.94,503.75,-184,16424,-2064,1,0,0
36578,89767.00,503.94,503.75,-252,16412,-1856,1,0,0
36612,89767.00,503.94,503.75,-164,16512,-1880,1,0,0
36645,89768.00,503.84,503.75,-176,16452,-1804,1,0,0
36679,89768.00,503.84,503.75,-204,16532,-1808,1,0,0
36713,89768.00,503.84,503.75,-292,16464,-1724,1,0,0
36746,89768.00,503.84,503.75,-272,16480,-1860,1,0,0
36780,89767.00,503.94,503.75,-136,16516,-1708,1,0,0
36813,89767.00,503.94,503.75,-256,16708,-1860,1,0,0
36850,89768.00,503.84,503.75,-276,16392,-1952,1,0,0
36894,89768.00,503.84,503.75,-236,16516,-1804,1,0,0
36928,89768.00,503.84,503.75,-308,16408,-1732,1,0,0
36962,89769.00,503.75,503.75,-228,16472,-1756,1,0,0
36996,89769.00,503.75,503.75,-304,16488,-1860,1,0,0
37028,89769.00,503.75,503.75,-384,16348,-1700,1,0,0
37062,89768.00,503.84,503.76,-168,16540,-1828,1,0,0
37096,89768.00,503.84,503.76,-208,16484,-1888,1,0,0
37130,89768.00,503.84,503.76,-272,16460,-1732,1,0,0
37167,89768.00,503.84,503.76,-168,16584,-1800,1,0,0
37200,89768.00,503.84,503.76,-96,16504,-1936,1,0,0
37234,89768.00,503.84,503.76,-164,16504,-1848,1,0,0
37268,89768.00,503.84,503.76,-156,16388,-1776,1,0,0
37302,89768.00,503.84,503.76,-32,16608,-1920,1,0,0
37335,89768.00,503.84,503.76,-16,16556,-1840,1,0,0
37368,89767.00,503.94,503.76,-208,16416,-1828,1,0,0
37402,89767.00,503.94,503.76,-216,16420,-1720,1,0,0
37436,89768.00,503.84,503.76,-212,16340,-1876,1,0,0
37469,89769.00,503.75,503.76,-252,16468,-1760,1,0,0
37507,89768.00,503.84,503.76,-136,16636,-1752,1,0,0
37540,89769.00,503.75,503.76,-200,16448,-1932,1,0,0
37574,89770.00,503.66,503.76,-232,16496,-1788,1,0,0
37607,89769.00,503.66,503.76,-288,16560,-1740,1,0,0
37641,89770.00,503.66,503.76,-152,16580,-1804,1,0,0
37675,89769.00,503.75,503.76,-108,16528,-1884,1,0,0
37708,89769.00,503.75,503.76,-160,16588,-1768,1,0,0
37741,89769.00,503.75,503.76,-112,16516,-1888,1,0,0
37775,89769.00,503.75,503.76,-84,16376,-1744,1,0,0
37809,89769.00,503.75,503.76,-220,16532,-1748,1,0,0
37846,89769.00,503.75,503.76,-128,16460,-1860,1,0,0
37879,89769.00,503.75,503.76,-212,16536,-1832,1,0,0
37913,89768.00,503.84,503.76,-92,16516,-1692,1,0,0
37946,89767.00,503.94,503.76,-104,16508,-1828,1,0,0
37980,89768.00,503.84,503.76,-160,16432,-1756,1,0,0
38013,89770.00,503.66,503.76,-164,16548,-1936,1,0,0
38047,89769.00,503.75,503.76,-176,16448,-1744,1,0,0
38081,89769.00,503.75,503.76,-120,16420,-1896,1,0,0
38114,89769.00,503.75,503.76,-44,16476,-1864,1,0,0
38152,89769.00,503.75,503.76,-184,16664,-1844,1,0,0
38184,89769.00,503.75,503.76,-176,16532,-1752,1,0,0
38218,89769.00,503.75,503.76,-216,16396,-1792,1,0,0
38252,89769.00,503.75,503.76,-220,16448,-1820,1,0,0
38286,89769.00,503.75,503.76,-236,16508,-1752,1,0,0
38319,89770.00,503.66,503.76,-132,16620,-1756,1,0,0
38352,89770.00,503.66,503.76,-296,16480,-1932,1,0,0
38386,89770.00,503.66,503.76,-188,16452,-1784,1,0,0
38420,89769.00,503.75,503.76,-168,16484,-1936,1,0,0
38462,89769.00,503.75,503.76,-92,16540,-1864,1,0,0
38500,89769.00,503.75,503.76,-228,16524,-1828,1,0,0
38533,89770.00,503.66,503.76,-208,16496,-1880,1,0,0
38566,89771.00,503.56,503.76,-132,16488,-1812,1,0,0
38600,89770.00,503.66,503.76,-192,16596,-1772,1,0,0
38634,89769.00,503.75,503.76,-220,16468,-1740,1,0,0
38667,89769.00,503.75,503.76,-180,16512,-1824,1,0,0
38701,89770.00,503.66,503.76,-200,16576,-1712,1,0,0
38734,89771.00,503.56,503.76,-128,16536,-1856,1,0,0
38768,89770.00,503.66,503.76,-188,16584,-1900,1,0,0
38801,89771.00,503.56,503.76,-36,16624,-1888,1,0,0
38849,89770.00,503.66,503.75,-112,16424,-1744,1,0,0
38883,89770.00,503.66,503.75,-120,16468,-1732,1,0,0
38916,89770.00,503.66,503.75,-192,16548,-1908,1,0,0
38949,89770.00,503.66,503.75,-260,16652,-1836,1,0,0
38983,89771.00,503.56,503.75,-240,16712,-2068,1,0,0
39017,89771.00,503.56,503.75,-168,16500,-1868,1,0,0
39050,89771.00,503.56,503.75,-284,16468,-1720,1,0,0
39084,89771.00,503.56,503.75,-272,16412,-1772,1,0,0
39117,89771.00,503.56,503.75,-72,16576,-1832,1,0,0
39154,89770.00,503.66,503.75,-128,16520,-1888,1,0,0
39188,89771.00,503.56,503.75,-256,16480,-1700,1,0,0
39222,89772.00,503.47,503.75,-276,16440,-1656,1,0,0
39255,89772.00,503.47,503.75,-292,16472,-1796,1,0,0
39288,89771.00,503.56,503.75,-124,16600,-1888,1,0,0
39322,89771.00,503.56,503.75,-112,16504,-1928,1,0,0
39356,89771.00,503.56,503.75,-252,16420,-1856,1,0,0
39389,89772.00,503.47,503.75,-240,16452,-1880,1,0,0
39422,89772.00,503.47,503.75,-120,16524,-1888,1,0,0
39456,89772.00,503.47,503.74,-244,16448,-1868,1,0,0
39493,89771.00,503.56,503.74,-128,16628,-1916,1,0,0
39527,89771.00,503.56,503.74,-112,16552,-1784,1,0,0
39561,89772.00,503.47,503.74,-208,16612,-1872,1,0,0
39593,89772.00,503.47,503.74,-208,16500,-1864,1,0,0
39627,89773.00,503.38,503.74,-136,16496,-1848,1,0,0
39661,89773.00,503.38,503.74,-80,16588,-1936,1,0,0
39695,89773.00,503.38,503.74,-132,16600,-1808,1,0,0
39728,89772.00,503.47,503.74,-160,16548,-1964,1,0,0
39761,89772.00,503.47,503.74,-184,16540,-1892,1,0,0
39795,89772.00,503.47,503.74,-212,16660,-1792,1,0,0
39832,89772.00,503.47,503.74,-148,16444,-1860,1,0,0
39866,89772.00,503.47,503.73,-224,16484,-1892,1,0,0
39900,89773.00,503.38,503.73,-180,16376,-1768,1,0,0
39932,89773.00,503.38,503.73,-44,16532,-1828,1,0,0
39966,89773.00,503.38,503.73,-32,16520,-1776,1,0,0
40000,89773.00,503.38,503.73,-124,16448,-1764,1,0,0
40033,89772.00,503.47,503.73,-268,16528,-1708,1,0,0
40067,89772.00,503.47,503.73,-220,16468,-1652,1,0,0
40100,89772.00,503.47,503.73,-140,16508,-1884,1,0,0
40137,89773.00,503.38,503.73,-132,16492,-1856,1,0,0
40171,89772.00,503.47,503.73,-232,16496,-1780,1,0,0
40205,89773.00,503.38,503.72,-184,16588,-1804,1,0,0
40238,89773.00,503.38,503.72,-208,16488,-1780,1,0,0
40271,89773.00,503.38,503.72,-120,16552,-1888,1,0,0
40305,89773.00,503.38,503.72,-180,16560,-1832,1,0,0
40338,89773.00,503.38,503.72,-228,16500,-1784,1,0,0
40372,89773.00,503.38,503.72,-280,16500,-1752,1,0,0
40415,89772.00,503.47,503.72,-160,16380,-1772,1,0,0
40448,89772.00,503.47,503.72,-208,16536,-1656,1,0,0
40485,89772.00,503.47,503.72,-124,16580,-1984,1,0,0
40518,89773.00,503.38,503.72,-52,16496,-1880,1,0,0
40552,89773.00,503.38,503.71,-200,16588,-1912,1,0,0
40586,89774.00,503.28,503.71,-168,16564,-1848,1,0,0
40620,89773.00,503.38,503.71,-200,16476,-1752,1,0,0
40652,89773.00,503.38,503.71,-132,16476,-1792,1,0,0
40686,89773.00,503.38,503.71,-144,16488,-1768,1,0,0
40720,89773.00,503.38,503.71,-104,16624,-1828,1,0,0
40753,89773.00,503.38,503.71,-240,16612,-1804,1,0,0
40797,89772.00,503.47,503.71,-148,16652,-1660,1,0,0
40835,89772.00,503.47,503.71,-248,16472,-1912,1,0,0
40867,89773.00,503.38,503.71,-196,16600,-1880,1,0,0
40901,89772.00,503.47,503.70,-200,16576,-1876,1,0,0
40935,89773.00,503.38,503.70,-160,16596,-1856,1,0,0
40968,89773.00,503.38,503.70,-240,16428,-1772,1,0,0
41001,89773.00,503.38,503.70,-188,16548,-1588,1,0,0
41035,89773.00,503.38,503.70,-180,16568,-1680,1,0,0
41069,89772.00,503.47,503.70,-216,16500,-1800,1,0,0
41102,89773.00,503.38,503.70,-232,16476,-1772,1,0,0
41140,89773.00,503.38,503.70,-224,16460,-1764,1,0,0
41172,89774.00,503.28,503.70,-212,16524,-1792,1,0,0
41206,89774.00,503.28,503.69,-176,16520,-1836,1,0,0
41240,89774.00,503.28,503.69,-184,16568,-1856,1,0,0
41273,89774.00,503.28,503.69,-240,16460,-1740,1,0,0
41307,89774.00,503.28,503.69,-156,16400,-1840,1,0,0
41340,89774.00,503.28,503.69,-192,16468,-1988,1,0,0
41373,89774.00,503.28,503.69,-44,16576,-1952,1,0,0
41407,89774.00,503.28,503.69,-216,16500,-1876,1,0,0
41441,89774.00,503.28,503.68,-184,16408,-1892,1,0,0
41478,89774.00,503.28,503.68,-240,16552,-1856,1,0,0
41511,89773.00,503.38,503.68,-184,16560,-1836,1,0,0
41545,89773.00,503.38,503.68,-100,16580,-1832,1,0,0
41578,89773.00,503.38,503.68,-152,16536,-1716,1,0,0
41612,89772.00,503.47,503.68,-260,16528,-1796,1,0,0
41646,89772.00,503.47,503.68,-228,16536,-1752,1,0,0
41678,89772.00,503.47,503.68,-148,16540,-1812,1,0,0
41712,89772.00,503.47,503.68,-128,16548,-1824,1,0,0
41746,89773.00,503.38,503.68,-92,16620,-1904,1,0,0
41779,89773.00,503.38,503.67,-188,16576,-1848,1,0,0
41817,89773.00,503.38,503.67,-256,16500,-1872,1,0,0
41850,89773.00,503.38,503.67,-220,16508,-1728,1,0,0
41883,89773.00,503.38,503.67,-280,16484,-1840,1,0,0
41917,89773.00,503.28,503.67,-220,16492,-1696,1,0,0
41951,89774.00,503.28,503.67,-188,16396,-1800,1,0,0
41984,89773.00,503.38,503.67,-320,16452,-1736,1,0,0
42017,89773.00,503.38,503.67,-196,16436,-1772,1,0,0
42051,89774.00,503.28,503.66,-272,16516,-1816,1,0,0
42084,89773.00,503.38,503.66,-280,16436,-1840,1,0,0
42122,89773.00,503.38,503.66,-12,16560,-1760,1,0,0
42155,89772.00,503.47,503.66,-136,16484,-1864,1,0,0
42188,89772.00,503.47,503.66,-88,16536,-1964,1,0,0
42222,89773.00,503.38,503.66,-48,16596,-1912,1,0,0
42255,89773.00,503.38,503.66,-160,16624,-1648,1,0,0
42289,89774.00,503.28,503.66,-16,16564,-1720,1,0,0
42332,89774.00,503.28,503.66,-128,16564,-1768,1,0,0
42364,89774.00,503.28,503.65,-228,16448,-1740,1,0,0
42398,89774.00,503.28,503.65,-200,16460,-1808,1,0,0
42432,89775.00,503.19,503.65,-148,16552,-1832,1,0,0
42469,89775.00,503.19,503.65,-168,16512,-1804,1,0,0
42503,89775.00,503.19,503.65,-136,16520,-1868,1,0,0
42535,89775.00,503.19,503.65,-128,16424,-1760,1,0,0
42569,89775.00,503.19,503.64,-200,16528,-1820,1,0,0
42603,89775.00,503.19,503.64,-204,16436,-1760,1,0,0
42636,89774.00,503.28,503.64,-88,16548,-1804,1,0,0
42670,89775.00,503.19,503.64,-176,16512,-1836,1,0,0
42714,89775.00,503.19,503.64,-160,16524,-1768,1,0,0
42746,89776.00,503.10,503.64,-216,16584,-1808,1,0,0
42780,89775.00,503.19,503.63,-116,16524,-1816,1,0,0
42817,89775.00,503.19,503.63,-172,16564,-1720,1,0,0
42851,89775.00,503.19,503.63,-136,16496,-1696,1,0,0
42885,89775.00,503.19,503.63,-224,16552,-1716,1,0,0
42917,89775.00,503.19,503.63,-128,16492,-1756,1,0,0
42951,89775.00,503.19,503.63,-240,16484,-1816,1,0,0
42985,89775.00,503.19,503.62,-288,16480,-1696,1,0,0
43018,89775.00,503.19,503.62,-68,16516,-1976,1,0,0
43052,89776.00,503.10,503.62,48,16508,-1868,1,0,0
43084,89777.00,503.01,503.62,-276,16480,-1776,1,0,0
43118,89777.00,503.01,503.61,-264,16468,-1788,1,0,0
43155,89778.00,502.91,503.61,-140,16544,-1776,1,0,0
43189,89778.00,502.91,503.61,-240,16532,-1828,1,0,0
43223,89777.00,503.01,503.61,-172,16596,-1864,1,0,0
43255,89777.00,503.01,503.60,-64,16492,-1808,1,0,0
43289,89778.00,502.91,503.60,-208,16496,-1884,1,0,0
43323,89777.00,503.01,503.60,-116,16632,-1760,1,0,0
43356,89777.00,503.01,503.59,-212,16464,-1848,1,0,0
43389,89777.00,503.01,503.59,-228,16552,-1816,1,0,0
43422,89777.00,503.01,503.59,-64,16548,-1964,1,0,0
43460,89777.00,503.01,503.59,-172,16488,-1816,1,0,0
43493,89777.00,503.01,503.58,-136,16464,-1840,1,0,0
43527,89777.00,503.01,503.58,-152,16452,-1944,1,0,0
43560,89777.00,503.01,503.58,-196,16516,-1824,1,0,0
43593,89778.00,502.91,503.58,-168,16416,-1744,1,0,0
43627,89778.00,502.91,503.57,-256,16380,-1768,1,0,0
43660,89779.00,502.82,503.57,-284,16400,-1808,1,0,0
43694,89778.00,502.91,503.57,-224,16364,-1932,1,0,0
43727,89779.00,502.82,503.56,-148,16508,-1960,1,0,0
43760,89780.00,502.73,503.56,-160,16428,-1732,1,0,0
43798,89781.00,502.63,503.55,-184,16556,-1888,1,0,0
43831,89780.00,502.73,503.55,-156,16612,-1744,1,0,0
43865,89780.00,502.73,503.54,-116,16632,-1904,1,0,0
43898,89779.00,502.82,503.54,-116,16504,-1916,1,0,0
43931,89779.00,502.82,503.54,-204,16608,-1844,1,0,0
43965,89780.00,502.73,503.53,-168,16532,-1824,1,0,0
43998,89780.00,502.73,503.53,-104,16528,-1764,1,0,0
44032,89780.00,502.73,503.52,-172,16572,-1776,1,0,0
44065,89780.00,502.73,503.52,-208,16476,-1804,1,0,0
44098,89780.00,502.73,503.52,-136,16576,-1784,1,0,0
44136,89780.00,502.73,503.51,-296,16468,-1756,1,0,0
44169,89781.00,502.63,503.51,-236,16344,-1684,1,0,0
44203,89780.00,502.73,503.50,-260,16576,-1716,1,0,0
44235,89780.00,502.73,503.50,-224,16468,-1844,1,0,0
44278,89780.00,502.73,503.49,-132,16468,-1856,1,0,0
44312,89780.00,502.73,503.49,-188,16468,-1908,1,0,0
44345,89781.00,502.63,503.48,-144,16548,-1916,1,0,0
44379,89780.00,502.73,503.48,-152,16528,-1848,1,0,0
44411,89780.00,502.73,503.47,-252,16500,-1868,1,0,0
44449,89780.00,502.73,503.47,-128,16588,-1788,1,0,0
44482,89780.00,502.73,503.47,-208,16484,-1976,1,0,0
44516,89780.00,502.73,503.46,-272,16376,-1848,1,0,0
44550,89779.00,502.82,503.46,-152,16468,-1892,1,0,0
44582,89779.00,502.82,503.45,-112,16508,-1912,1,0,0
44616,89779.00,502.82,503.45,-168,16568,-1808,1,0,0
44659,89778.00,502.91,503.45,-172,16412,-1764,1,0,0
44693,89779.00,502.82,503.44,-224,16492,-1816,1,0,0
44727,89779.00,502.82,503.44,-228,16504,-1724,1,0,0
44760,89780.00,502.73,503.43,-156,16532,-1836,1,0,0
44797,89779.00,502.73,503.43,-240,16488,-1804,1,0,0
44830,89779.00,502.82,503.42,-156,16572,-1944,1,0,0
44864,89779.00,502.82,503.42,-176,16504,-1760,1,0,0
44897,89780.00,502.73,503.42,-148,16576,-1736,1,0,0
44931,89780.00,502.73,503.41,-172,16424,-1808,1,0,0
44964,89781.00,502.63,503.41,-256,16476,-1796,1,0,0
44997,89782.00,502.54,503.40,-268,16564,-1876,1,0,0
45031,89781.00,502.63,503.39,-224,16596,-1780,1,0,0
45065,89781.00,502.63,503.39,-96,16632,-1916,1,0,0
45097,89782.00,502.54,503.38,-144,16624,-1752,1,0,0
45135,89782.00,502.54,503.38,0,16572,-1916,1,0,0
45168,89782.00,502.54,503.37,-136,16504,-1644,1,0,0
45202,89781.00,502.63,503.37,-120,16448,-1960,1,0,0
45235,89781.00,502.63,503.36,-104,16592,-1916,1,0,0
45268,89780.00,502.73,503.36,-88,16616,-1784,1,0,0
45301,89779.00,502.82,503.35,-96,16600,-1796,1,0,0
45335,89779.00,502.82,503.35,-172,16500,-1928,1,0,0
45369,89779.00,502.82,503.34,-116,16548,-1796,1,0,0
45402,89779.00,502.82,503.34,-176,16380,-1776,1,0,0
45438,89779.00,502.82,503.34,-168,16444,-1940,1,0,0
45472,89779.00,502.82,503.33,-216,16460,-1828,1,0,0
45505,89780.00,502.73,503.33,-200,16636,-1788,1,0,0
45539,89781.00,502.63,503.32,-168,16556,-1896,1,0,0
45572,89781.00,502.63,503.32,-192,16448,-1664,1,0,0
45604,89781.00,502.63,503.31,-184,16488,-1776,1,0,0
45638,89782.00,502.54,503.31,-284,16400,-1700,1,0,0
45671,89781.00,502.63,503.30,-276,16492,-1844,1,0,0
45705,89782.00,502.54,503.30,-176,16444,-1840,1,0,0
45737,89781.00,502.63,503.29,-224,16480,-1720,1,0,0
45774,89781.00,502.63,503.29,-244,16592,-1920,1,0,0
45807,89781.00,502.63,503.28,-168,16492,-1812,1,0,0
45841,89781.00,502.63,503.28,-100,16508,-1792,1,0,0
45874,89781.00,502.63,503.27,-108,16488,-1908,1,0,0
45907,89780.00,502.73,503.27,-148,16508,-1844,1,0,0
45940,89781.00,502.63,503.26,-164,16444,-1880,1,0,0
45974,89782.00,502.54,503.26,-200,16440,-1888,1,0,0
46007,89782.00,502.54,503.25,-184,16576,-1800,1,0,0
46040,89782.00,502.54,503.24,-140,16528,-1900,1,0,0
46073,89782.00,502.54,503.24,-96,16460,-1876,1,0,0
46110,89782.00,502.54,503.23,-28,16516,-1828,1,0,0
46144,89781.00,502.63,503.23,-276,16508,-1704,1,0,0
46186,89782.00,502.54,503.22,-240,16408,-1704,1,0,0
46220,89781.00,502.63,503.22,-176,16596,-1748,1,0,0
46254,89781.00,502.63,503.21,-216,16424,-1844,1,0,0
46287,89781.00,502.63,503.21,-264,16444,-1876,1,0,0
46321,89781.00,502.63,503.20,-132,16392,-1876,1,0,0
46355,89780.00,502.73,503.20,-184,16540,-1788,1,0,0
46388,89781.00,502.63,503.19,-216,16320,-1728,1,0,0
46426,89781.00,502.63,503.19,-248,16504,-1792,1,0,0
46459,89782.00,502.54,503.18,-200,16604,-1796,1,0,0
46493,89781.00,502.63,503.18,-96,16504,-1760,1,0,0
46526,89781.00,502.63,503.17,-136,16628,-1888,1,0,0
46571,89780.00,502.73,503.17,-200,16428,-1832,1,0,0
46605,89780.00,502.73,503.17,-88,16524,-1928,1,0,0
46638,89780.00,502.73,503.16,-232,16548,-1732,1,0,0
46671,89781.00,502.63,503.16,-276,16536,-1716,1,0,0
46705,89781.00,502.63,503.15,-248,16320,-1888,1,0,0
46739,89779.00,502.82,503.15,-124,16544,-1900,1,0,0
46776,89779.00,502.82,503.15,-204,16560,-1808,1,0,0
46810,89779.00,502.82,503.15,-84,16568,-1968,1,0,0
46843,89780.00,502.73,503.14,-184,16584,-1752,1,0,0
46877,89780.00,502.73,503.14,-132,16568,-1824,1,0,0
46911,89781.00,502.63,503.13,-28,16596,-1936,1,0,0
46944,89781.00,502.63,503.13,-112,16568,-1752,1,0,0
46978,89781.00,502.63,503.13,-120,16520,-1796,1,0,0
47011,89780.00,502.73,503.12,-104,16448,-1896,1,0,0
47045,89780.00,502.73,503.12,-212,16576,-1984,1,0,0
47079,89781.00,502.63,503.11,-248,16452,-1796,1,0,0
47116,89780.00,502.73,503.11,-164,16496,-1764,1,0,0
47150,89780.00,502.73,503.11,-188,16512,-1888,1,0,0
47183,89780.00,502.73,503.10,-192,16500,-1848,1,0,0
47217,89780.00,502.73,503.10,-248,16508,-1916,1,0,0
47250,89780.00,502.73,503.10,-148,16528,-1768,1,0,0
47284,89780.00,502.73,503.10,-192,16584,-1696,1,0,0
47318,89780.00,502.73,503.09,-184,16636,-1728,1,0,0
47351,89781.00,502.63,503.09,-304,16520,-1812,1,0,0
47385,89781.00,502.63,503.08,-256,16588,-1816,1,0,0
47422,89780.00,502.73,503.08,-136,16584,-1936,1,0,0
47456,89780.00,502.73,503.08,-260,16344,-1756,1,0,0
47490,89780.00,502.73,503.08,-164,16360,-1816,1,0,0
47522,89781.00,502.63,503.07,-252,16536,-1840,1,0,0
47556,89782.00,502.54,503.07,-172,16496,-1872,1,0,0
47590,89782.00,502.54,503.06,-168,16348,-1860,1,0,0
47624,89782.00,502.54,503.06,-212,16452,-1908,1,0,0
47656,89782.00,502.54,503.05,-200,16492,-1960,1,0,0
47690,89782.00,502.54,503.05,-200,16464,-1844,1,0,0
47724,89781.00,502.63,503.05,-120,16508,-1968,1,0,0
47761,89781.00,502.63,503.04,-124,16556,-1800,1,0,0
47795,89781.00,502.63,503.04,-156,16608,-1720,1,0,0
47828,89781.00,502.63,503.03,-236,16512,-1808,1,0,0
47862,89781.00,502.63,503.03,-216,16600,-1800,1,0,0
47895,89781.00,502.63,503.03,-184,16500,-1780,1,0,0
47929,89782.00,502.54,503.02,-256,16484,-1848,1,0,0
47963,89782.00,502.54,503.02,-328,16412,-1796,1,0,0
47996,89781.00,502.63,503.02,-200,16600,-1724,1,0,0
48030,89781.00,502.63,503.01,-168,16528,-1700,1,0,0
48063,89782.00,502.54,503.01,-260,16456,-1724,1,0,0
48101,89782.00,502.54,503.01,-132,16516,-1836,1,0,0
48143,89782.00,502.54,503.00,-96,16576,-1948,1,0,0
48177,89782.00,502.54,503.00,-120,16672,-1872,1,0,0
48210,89782.00,502.54,502.99,-72,16604,-2000,1,0,0
48244,89781.00,502.63,502.99,-204,16508,-1848,1,0,0
48277,89781.00,502.63,502.99,-212,16516,-1968,1,0,0
48311,89782.00,502.54,502.98,-384,16592,-1840,1,0,0
48345,89782.00,502.54,502.98,-56,16508,-1828,1,0,0
48378,89783.00,502.45,502.98,-160,16608,-1868,1,0,0
48415,89783.00,502.45,502.97,-240,16516,-1828,1,0,0
48449,89784.00,502.36,502.97,-168,16496,-1852,1,0,0
48493,89784.00,502.36,502.96,-132,16632,-1832,1,0,0
48527,89783.00,502.45,502.96,-124,16576,-1776,1,0,0
48561,89783.00,502.45,502.95,-236,16440,-1840,1,0,0
48594,89783.00,502.45,502.95,-208,16504,-1700,1,0,0
48627,89783.00,502.45,502.94,-80,16624,-1848,1,0,0
48661,89782.00,502.54,502.94,-80,16644,-1860,1,0,0
48695,89782.00,502.54,502.94,-40,16552,-1908,1,0,0
48729,89782.00,502.54,502.93,-152,16640,-1848,1,0,0
48765,89783.00,502.45,502.93,-320,16368,-1860,1,0,0
48799,89783.00,502.45,502.92,-228,16484,-1820,1,0,0
48833,89782.00,502.54,502.92,-152,16544,-1876,1,0,0
48866,89782.00,502.54,502.92,-228,16444,-1764,1,0,0
48900,89781.00,502.63,502.92,-244,16380,-1832,1,0,0
48933,89782.00,502.54,502.91,-240,16540,-1684,1,0,0
48967,89782.00,502.54,502.91,-236,16532,-2008,1,0,0
49000,89783.00,502.45,502.90,-240,16480,-1808,1,0,0
49034,89783.00,502.45,502.90,-232,16460,-1992,1,0,0
49068,89782.00,502.54,502.90,-216,16488,-1896,1,0,0
49104,89783.00,502.45,502.89,-8,16620,-1808,1,0,0
49138,89783.00,502.45,502.89,-160,16584,-1760,1,0,0
49172,89784.00,502.36,502.89,-120,16628,-1724,1,0,0
49205,89784.00,502.36,502.88,-196,16516,-1736,1,0,0
49239,89784.00,502.36,502.88,-84,16576,-1904,1,0,0
49272,89784.00,502.36,502.87,-32,16472,-1844,1,0,0
49305,89784.00,502.36,502.87,-176,16504,-1748,1,0,0
49339,89784.00,502.36,502.86,-92,16516,-1892,1,0,0
49373,89783.00,502.45,502.86,-228,16508,-1752,1,0,0
49406,89783.00,502.45,502.86,-240,16616,-1892,1,0,0
49443,89784.00,502.36,502.85,-348,16468,-1768,1,0,0
49477,89783.00,502.45,502.85,-172,16728,-1932,1,0,0
49511,89783.00,502.45,502.84,-172,16624,-2024,1,0,0
49544,89783.00,502.45,502.84,-136,16448,-1816,1,0,0
49577,89783.00,502.45,502.84,-136,16476,-1872,1,0,0
49611,89782.00,502.54,502.84,-244,16596,-1792,1,0,0
49645,89782.00,502.54,502.83,-148,16452,-1608,1,0,0
49678,89782.00,502.54,502.83,-136,16604,-1868,1,0,0
49712,89781.00,502.63,502.83,-416,16548,-1744,1,0,0
49750,89781.00,502.63,502.83,-92,16532,-1864,1,0,0
49782,89780.00,502.73,502.83,-188,16640,-1948,1,0,0
49816,89781.00,502.63,502.82,-216,16492,-1736,1,0,0
49850,89780.00,502.73,502.82,-160,16476,-1908,1,0,0
49883,89780.00,502.73,502.82,-168,16532,-1828,1,0,0
49916,89781.00,502.63,502.82,-360,16440,-1968,1,0,0
49950,89781.00,502.63,502.82,348,15996,-2456,1,0,0
49984,89781.00,502.63,502.82,-132,16480,-1596,1,0,0
50017,89782.00,502.54,502.82,2044,17364,-3596,1,0,0
50051,89782.00,502.54,502.81,-1684,16352,860,1,0,0
50097,89783.00,502.45,502.81,-928,15396,-324,1,0,0
50130,89783.00,502.45,502.81,420,16656,-2524,1,0,0
50164,89782.00,502.54,502.81,640,17068,-2836,1,0,0
50197,89783.00,502.45,502.80,-372,16864,-1860,1,0,0
50231,89782.00,502.54,502.80,-384,16540,-1464,1,0,0
50265,89782.00,502.54,502.80,1884,15780,-3936,1,0,0
50298,89781.00,502.63,502.80,20,16404,-2060,1,0,0
50331,89782.00,502.54,502.79,-548,16528,-1412,1,0,0
50365,89781.00,502.63,502.79,-208,16444,-1640,1,0,0
50399,89781.00,502.63,502.79,-256,16384,-1832,1,0,0
50447,89781.00,502.63,502.79,-248,16604,-1660,1,0,0
50480,89782.00,502.54,502.79,-184,16220,-1712,1,0,0
50513,89781.00,502.63,502.79,-220,16476,-1928,1,0,0
50547,89781.00,502.63,502.79,-92,16404,-1880,1,0,0
50581,89781.00,502.63,502.79,104,16672,-1832,1,0,0
50614,89781.00,502.63,502.78,-40,16484,-1800,1,0,0
50648,89781.00,502.63,502.78,-184,16504,-1880,1,0,0
50681,89781.00,502.63,502.78,-152,16604,-1744,1,0,0
50714,89781.00,502.63,502.78,-8,16532,-2020,1,0,0
50752,89781.00,502.63,502.78,-392,16376,-1896,1,0,0
50785,89782.00,502.54,502.78,-328,16556,-1840,1,0,0
50819,89783.00,502.45,502.78,-408,16392,-1700,1,0,0
50852,89783.00,502.45,502.77,-396,16384,-1804,1,0,0
50885,89783.00,502.45,502.77,-356,16452,-1720,1,0,0
50919,89783.00,502.45,502.77,-160,16544,-1796,1,0,0
50953,89783.00,502.45,502.77,-188,16528,-1808,1,0,0
50987,89783.00,502.45,502.76,-148,16488,-1776,1,0,0
51019,89784.00,502.36,502.76,-244,16432,-1940,1,0,0
51053,89783.00,502.45,502.76,-176,16480,-1752,1,0,0
51090,89783.00,502.45,502.76,-28,16636,-1872,1,0,0
51124,89783.00,502.45,502.75,-136,16500,-1848,1,0,0
51158,89783.00,502.45,502.75,-132,16576,-1844,1,0,0
51191,89783.00,502.45,502.75,-116,16568,-1872,1,0,0
51224,89782.00,502.54,502.75,-172,16552,-1740,1,0,0
51258,89782.00,502.54,502.75,-184,16640,-1816,1,0,0
51292,89783.00,502.45,502.74,-116,16560,-1888,1,0,0
51324,89783.00,502.45,502.74,-192,16472,-1776,1,0,0
51358,89782.00,502.54,502.74,-308,16512,-1788,1,0,0
51392,89783.00,502.45,502.74,-36,16432,-1892,1,0,0
51429,89783.00,502.45,502.74,-156,16468,-1836,1,0,0
51463,89783.00,502.45,502.73,-128,16516,-1852,1,0,0
51496,89784.00,502.36,502.73,-124,16584,-1892,1,0,0
51529,89783.00,502.45,502.73,-144,16496,-1800,1,0,0
51563,89782.00,502.54,502.73,-216,16380,-1716,1,0,0
51597,89783.00,502.45,502.73,-100,16536,-1940,1,0,0
51630,89783.00,502.45,502.72,-256,16576,-1932,1,0,0
51663,89783.00,502.45,502.72,-188,16660,-1932,1,0,0
51697,89782.00,502.54,502.72,-152,16592,-1856,1,0,0
51734,89782.00,502.54,502.72,-272,16496,-1836,1,0,0
51768,89782.00,502.45,502.72,-8,16512,-1880,1,0,0
51801,89782.00,502.54,502.72,-300,16332,-1732,1,0,0
51834,89782.00,502.54,502.71,-96,16428,-1848,1,0,0
51868,89782.00,502.54,502.71,-408,16420,-1796,1,0,0
51901,89782.00,502.54,502.71,-112,16484,-1800,1,0,0
51935,89781.00,502.63,502.71,-280,16472,-1704,1,0,0
51969,89781.00,502.63,502.71,-60,16520,-1740,1,0,0
52011,89782.00,502.54,502.71,-196,16564,-1824,1,0,0
52044,89782.00,502.54,502.71,-208,16552,-1840,1,0,0
52081,89781.00,502.63,502.71,-192,16456,-1740,1,0,0
52115,89782.00,502.54,502.71,-196,16552,-1840,1,0,0
52149,89782.00,502.54,502.71,-200,16384,-1884,1,0,0
52183,89783.00,502.45,502.70,-60,16532,-1848,1,0,0
52215,89782.00,502.54,502.70,-116,16648,-1756,1,0,0
52249,89781.00,502.63,502.70,-88,16516,-1776,1,0,0
52282,89782.00,502.54,502.70,-132,16648,-1868,1,0,0
52316,89782.00,502.54,502.70,-140,16484,-1848,1,0,0
52361,89783.00,502.45,502.70,-244,16484,-1792,1,0,0
52393,89782.00,502.54,502.70,-208,16380,-1672,1,0,0
52431,89782.00,502.54,502.70,-112,16548,-1760,1,0,0
52464,89783.00,502.45,502.69,-232,16516,-1712,1,0,0
52498,89783.00,502.45,502.69,-156,16500,-1776,1,0,0
52532,89783.00,502.45,502.69,-16,16324,-1968,1,0,0
52564,89782.00,502.54,502.69,-44,16520,-1840,1,0,0
52598,89782.00,502.54,502.69,-372,16400,-1568,1,0,0
52632,89781.00,502.63,502.69,-28,16552,-1816,1,0,0
52665,89782.00,502.54,502.69,-256,16516,-1748,1,0,0
52699,89782.00,502.54,502.69,-96,16572,-1664,1,0,0
52732,89782.00,502.54,502.69,-232,16552,-1852,1,0,0
52769,89781.00,502.63,502.69,-152,16488,-1732,1,0,0
52803,89781.00,502.63,502.69,-188,16544,-1812,1,0,0
52836,89782.00,502.54,502.68,-176,16516,-1828,1,0,0
52870,89782.00,502.54,502.68,-140,16464,-1752,1,0,0
52903,89783.00,502.45,502.68,-212,16532,-1888,1,0,0
52936,89783.00,502.45,502.68,-276,16492,-1732,1,0,0
52970,89783.00,502.45,502.68,-276,16460,-1832,1,0,0
53004,89783.00,502.45,502.68,-240,16464,-1780,1,0,0
53037,89784.00,502.36,502.68,-268,16404,-1888,1,0,0
53074,89783.00,502.45,502.67,-156,16572,-2004,1,0,0
53108,89783.00,502.45,502.67,-84,16664,-1868,1,0,0
53141,89783.00,502.45,502.67,-88,16496,-1848,1,0,0
53175,89783.00,502.45,502.67,-108,16488,-1820,1,0,0
53209,89784.00,502.36,502.67,-112,16644,-1736,1,0,0
53241,89785.00,502.26,502.67,-144,16524,-1660,1,0,0
53275,89785.00,502.26,502.66,-112,16532,-1844,1,0,0
53309,89784.00,502.36,502.66,-32,16540,-1900,1,0,0
53342,89785.00,502.26,502.66,20,16620,-1840,1,0,0
53376,89785.00,502.26,502.66,-48,16568,-1908,1,0,0
53412,89784.00,502.36,502.65,-208,16520,-1848,1,0,0
53446,89784.00,502.36,502.65,-176,16428,-1824,1,0,0
53479,89784.00,502.36,502.65,-264,16556,-1740,1,0,0
53513,89782.00,502.54,502.65,-164,16372,-1832,1,0,0
53547,89782.00,502.54,502.65,-280,16532,-1776,1,0,0
53579,89783.00,502.45,502.65,-264,16484,-1876,1,0,0
53613,89783.00,502.45,502.65,-180,16436,-1752,1,0,0
53647,89784.00,502.36,502.64,-276,16544,-1736,1,0,0
53680,89784.00,502.36,502.64,-396,16304,-1660,1,0,0
53713,89784.00,502.36,502.64,-136,16456,-1904,1,0,0
53750,89784.00,502.36,502.64,-184,16644,-1788,1,0,0
53784,89784.00,502.36,502.64,-160,16576,-1896,1,0,0
53818,89783.00,502.45,502.64,-152,16572,-1764,1,0,0
53851,89783.00,502.45,502.64,-196,16596,-1720,1,0,0
53884,89784.00,502.36,502.63,-196,16508,-1724,1,0,0
53918,89784.00,502.36,502.63,-104,16516,-1876,1,0,0
53960,89784.00,502.36,502.63,-184,16616,-1792,1,0,0
53994,89784.00,502.36,502.63,-16,16556,-1996,1,0,0
54028,89784.00,502.36,502.63,-52,16444,-1892,1,0,0
54065,89784.00,502.36,502.63,-376,16456,-1696,1,0,0
54098,89785.00,502.26,502.62,-280,16380,-1968,1,0,0
54131,89785.00,502.26,502.62,-240,16424,-1792,1,0,0
54165,89785.00,502.17,502.62,-192,16420,-1876,1,0,0
54198,89785.00,502.26,502.62,-164,16516,-1792,1,0,0
54232,89785.00,502.26,502.61,-132,16500,-1856,1,0,0
54276,89785.00,502.26,502.61,-240,16568,-1872,1,0,0
54309,89784.00,502.36,502.61,-196,16556,-1788,1,0,0
54343,89784.00,502.36,502.61,-56,16596,-2012,1,0,0
54376,89785.00,502.26,502.61,-212,16580,-1752,1,0,0
54414,89785.00,502.26,502.60,-244,16388,-1792,1,0,0
54447,89784.00,502.36,502.60,-308,16512,-1692,1,0,0
54480,89785.00,502.26,502.60,-356,16376,-1796,1,0,0
54514,89785.00,502.26,502.60,-356,16312,-1848,1,0,0
54547,89785.00,502.26,502.60,-272,16416,-1660,1,0,0
54581,89785.00,502.26,502.59,-212,16396,-1892,1,0,0
54614,89784.00,502.36,502.59,-248,16420,-1944,1,0,0
54647,89785.00,502.26,502.59,-156,16532,-1896,1,0,0
54681,89784.00,502.36,502.59,-160,16464,-1836,1,0,0
54714,89784.00,502.36,502.59,-112,16512,-1856,1,0,0
54752,89784.00,502.36,502.59,-96,16508,-1952,1,0,0
54785,89784.00,502.36,502.58,-120,16612,-1996,1,0,0
54818,89785.00,502.26,502.58,-160,16520,-1828,1,0,0
54851,89784.00,502.36,502.58,-80,16556,-1912,1,0,0
54885,89784.00,502.36,502.58,-96,16532,-1804,1,0,0
54919,89784.00,502.36,502.58,-16,16548,-1892,1,0,0
54951,89784.00,502.36,502.58,-176,16576,-1740,1,0,0
54985,89785.00,502.26,502.58,-220,16532,-1892,1,0,0
55018,89785.00,502.26,502.57,-268,16516,-1800,1,0,0
55052,89785.00,502.26,502.57,-248,16424,-1772,1,0,0
55083,89785.00,502.26,502.57,-324,16392,-1864,1,0,0
55116,89784.00,502.36,502.57,-280,16564,-1784,1,0,0
55150,89784.00,502.36,502.57,-120,16476,-1784,1,0,0
55183,89784.00,502.36,502.57,-200,16600,-1924,1,0,0
55217,89784.00,502.36,502.56,-160,16496,-1796,1,0,0
55249,89784.00,502.36,502.56,-132,16556,-1868,1,0,0
55283,89785.00,502.26,502.56,-112,16568,-1796,1,0,0
55317,89785.00,502.26,502.56,-124,16540,-1808,1,0,0
55350,89785.00,502.26,502.56,-216,16504,-1832,1,0,0
55388,89785.00,502.26,502.56,-184,16540,-1784,1,0,0
55420,89785.00,502.26,502.55,-216,16444,-1884,1,0,0
55454,89785.00,502.26,502.55,-180,16456,-1792,1,0,0
55488,89785.00,502.26,502.55,-224,16496,-1884,1,0,0
55521,89785.00,502.26,502.55,-180,16440,-1816,1,0,0
55555,89786.00,502.17,502.55,-232,16588,-1688,1,0,0
55587,89785.00,502.26,502.55,-168,16532,-1776,1,0,0
55621,89785.00,502.26,502.54,-228,16396,-1768,1,0,0
55655,89785.00,502.26,502.54,-180,16624,-1868,1,0,0
55688,89786.00,502.17,502.54,-280,16500,-1864,1,0,0
55725,89786.00,502.17,502.54,-136,16472,-1852,1,0,0
55758,89786.00,502.17,502.54,-180,16512,-1856,1,0,0
55792,89786.00,502.17,502.53,-192,16492,-1860,1,0,0
55825,89786.00,502.17,502.53,-140,16460,-1792,1,0,0
55859,89785.00,502.26,502.53,-116,16516,-1876,1,0,0
55901,89785.00,502.26,502.53,-200,16548,-1664,1,0,0
55934,89786.00,502.17,502.53,-156,16476,-1904,1,0,0
55967,89785.00,502.26,502.52,-284,16552,-1864,1,0,0
56001,89784.00,502.36,502.52,-208,16508,-1732,1,0,0
56038,89784.00,502.36,502.52,-96,16576,-1848,1,0,0
56072,89784.00,502.36,502.52,-84,16536,-1876,1,0,0
56104,89784.00,502.36,502.52,-168,16476,-1784,1,0,0
56137,89784.00,502.36,502.52,-140,16496,-1840,1,0,0
56181,89783.00,502.45,502.52,-240,16404,-1844,1,0,0
56215,89783.00,502.45,502.52,-204,16492,-1772,1,0,0
56248,89783.00,502.45,502.52,-380,16560,-1860,1,0,0
56282,89782.00,502.54,502.52,-172,16516,-1712,1,0,0
56314,89782.00,502.54,502.52,-168,16468,-1912,1,0,0
56348,89783.00,502.45,502.52,-300,16448,-1992,1,0,0
56465,89783.00,502.45,502.52,-144,16464,-1912,1,0,0
56498,89783.00,502.45,502.52,-248,16428,-1784,1,0,0
56531,89784.00,502.36,502.52,-140,16556,-1816,1,0,0
56564,89784.00,502.36,502.51,-136,16548,-1780,1,0,0
56597,89784.00,502.36,502.51,-156,16480,-1956,1,0,0
56631,89784.00,502.36,502.51,-104,16536,-1852,1,0,0
56664,89785.00,502.26,502.51,-232,16448,-1796,1,0,0
56697,89785.00,502.26,502.51,-96,16520,-1832,1,0,0
56730,89785.00,502.26,502.51,-136,16448,-1848,1,0,0
56764,89784.00,502.36,502.51,-240,16500,-1924,1,0,0
56801,89784.00,502.36,502.51,-172,16432,-1748,1,0,0
56835,89783.00,502.45,502.51,-152,16476,-1848,1,0,0
56868,89783.00,502.45,502.51,-196,16540,-1684,1,0,0
56901,89783.00,502.45,502.51,-200,16532,-1792,1,0,0
56935,89782.00,502.54,502.51,12,16548,-1860,1,0,0
56969,89782.00,502.54,502.51,-220,16496,-1812,1,0,0
57003,89783.00,502.45,502.51,-80,16492,-1832,1,0,0
57036,89783.00,502.45,502.51,-188,16504,-1852,1,0,0
57070,89782.00,502.54,502.51,-224,16500,-1828,1,0,0
57103,89783.00,502.45,502.51,-196,16520,-1628,1,0,0
57141,89784.00,502.36,502.50,-104,16452,-1812,1,0,0
57175,89784.00,502.36,502.50,-312,16388,-1696,1,0,0
57208,89783.00,502.45,502.50,-224,16456,-1872,1,0,0
57242,89783.00,502.45,502.50,-268,16472,-1812,1,0,0
57275,89783.00,502.45,502.50,-184,16500,-1856,1,0,0
57309,89784.00,502.36,502.50,-96,16388,-1880,1,0,0
57342,89784.00,502.36,502.50,-404,16472,-1684,1,0,0
57376,89784.00,502.36,502.50,-180,16420,-1828,1,0,0
57410,89784.00,502.36,502.50,-48,16564,-1896,1,0,0
57447,89785.00,502.26,502.50,-96,16644,-1964,1,0,0
57481,89785.00,502.26,502.50,-80,16464,-1944,1,0,0
57515,89785.00,502.26,502.50,-208,16628,-1836,1,0,0
57547,89786.00,502.17,502.49,-128,16484,-1904,1,0,0
57581,89785.00,502.26,502.49,-144,16492,-1796,1,0,0
57615,89785.00,502.26,502.49,-196,16424,-1772,1,0,0
57649,89785.00,502.26,502.49,-128,16556,-1924,1,0,0
57682,89785.00,502.26,502.49,-168,16460,-1832,1,0,0
57716,89785.00,502.26,502.49,-188,16484,-1744,1,0,0
57749,89786.00,502.26,502.49,-168,16504,-1772,1,0,0
57787,89786.00,502.17,502.49,-48,16552,-1940,1,0,0
57821,89786.00,502.17,502.48,-108,16480,-1884,1,0,0
57863,89785.00,502.26,502.48,36,16380,-1992,1,0,0
57896,89785.00,502.26,502.48,-36,16504,-2088,1,0,0
57930,89784.00,502.36,502.48,-228,16500,-1872,1,0,0
57964,89784.00,502.36,502.48,-164,16536,-1752,1,0,0
57998,89783.00,502.45,502.48,-132,16564,-1904,1,0,0
58031,89784.00,502.36,502.48,-220,16496,-1884,1,0,0
58064,89784.00,502.36,502.48,-224,16512,-1744,1,0,0
58098,89784.00,502.36,502.48,-192,16528,-1764,1,0,0
58136,89784.00,502.36,502.48,-216,16488,-1824,1,0,0
58181,89783.00,502.45,502.48,-332,16544,-1736,1,0,0
58215,89783.00,502.45,502.48,-216,16604,-1704,1,0,0
58248,89783.00,502.45,502.48,-264,16464,-1600,1,0,0
58281,89784.00,502.36,502.48,-232,16480,-1772,1,0,0
58315,89783.00,502.45,502.48,-168,16392,-1808,1,0,0
58349,89784.00,502.36,502.48,-212,16352,-1696,1,0,0
58383,89784.00,502.36,502.48,-252,16356,-1796,1,0,0
58416,89784.00,502.36,502.47,-228,16512,-1820,1,0,0
58454,89784.00,502.36,502.47,-188,16636,-1920,1,0,0
58487,89784.00,502.36,502.47,40,16708,-2092,1,0,0
58520,89785.00,502.26,502.47,-176,16612,-1904,1,0,0
58554,89784.00,502.36,502.47,-100,16508,-1936,1,0,0
58588,89783.00,502.45,502.47,-200,16488,-1816,1,0,0
58621,89784.00,502.36,502.47,-32,16440,-1872,1,0,0
58655,89784.00,502.36,502.47,-184,16552,-1916,1,0,0
58688,89784.00,502.36,502.47,-128,16644,-1908,1,0,0
58722,89783.00,502.45,502.47,-92,16628,-1964,1,0,0
58756,89783.00,502.45,502.47,-48,16568,-1948,1,0,0
58792,89783.00,502.45,502.47,-208,16488,-1896,1,0,0
58826,89784.00,502.36,502.47,-184,16380,-1812,1,0,0
58860,89784.00,502.36,502.47,-228,16480,-2008,1,0,0
58894,89784.00,502.36,502.47,-268,16584,-1792,1,0,0
58928,89784.00,502.36,502.47,-132,16572,-1860,1,0,0
58960,89784.00,502.36,502.47,-192,16344,-1896,1,0,0
58994,89784.00,502.36,502.47,-212,16580,-1984,1,0,0
59028,89784.00,502.36,502.47,-328,16636,-1748,1,0,0
59062,89785.00,502.26,502.46,-132,16640,-1988,1,0,0
59096,89785.00,502.26,502.46,-236,16524,-1940,1,0,0
59132,89785.00,502.26,502.46,-56,16696,-1844,1,0,0
59166,89786.00,502.17,502.46,-144,16500,-1748,1,0,0
59200,89787.00,502.08,502.46,8,16440,-1784,1,0,0
59233,89785.00,502.26,502.46,1076,17292,-2880,1,0,0
59267,89785.00,502.26,502.46,44,16492,-1952,1,0,0
59300,89785.00,502.26,502.46,-364,16352,-1584,1,0,0
59334,89785.00,502.26,502.46,-80,16576,-1980,1,0,0
59367,89785.00,502.26,502.45,-208,16460,-1888,1,0,0
59401,89785.00,502.26,502.45,-52,16628,-2008,1,0,0
59435,89785.00,502.26,502.45,-156,16620,-2020,1,0,0
59471,89784.00,502.36,502.45,-252,16456,-1756,1,0,0
59505,89785.00,502.26,502.45,-320,16448,-1824,1,0,0
59539,89785.00,502.26,502.45,-292,16400,-1692,1,0,0
59573,89784.00,502.36,502.45,32,16588,-2076,1,0,0
59606,89784.00,502.36,502.45,-148,16280,-1920,1,0,0
59639,89783.00,502.45,502.45,-240,16368,-1744,1,0,0
59673,89784.00,502.36,502.45,-132,16704,-1988,1,0,0
59707,89784.00,502.36,502.45,-224,16676,-1872,1,0,0
59741,89784.00,502.36,502.45,-96,16592,-1808,1,0,0
59778,89783.00,502.45,502.45,-120,16480,-1772,1,0,0
59820,89783.00,502.45,502.45,-328,16504,-1820,1,0,0
59853,89783.00,502.45,502.45,-312,16500,-1752,1,0,0
59887,89783.00,502.45,502.45,-268,16392,-1744,1,0,0
59921,89783.00,502.45,502.45,-148,16548,-1784,1,0,0
59955,89784.00,502.36,502.45,-252,16356,-1820,1,0,0
59987,89784.00,502.36,502.45,-236,16500,-1872,1,0,0
60021,89784.00,502.36,502.45,-248,16452,-1784,1,0,0
60055,89783.00,502.45,502.45,-336,16284,-1912,1,0,0
60100,89783.00,502.45,502.45,-224,16516,-1684,1,0,0
60137,89784.00,502.36,502.45,-204,16460,-1732,1,0,0
60171,89784.00,502.36,502.45,-148,16528,-1868,1,0,0
60205,89785.00,502.26,502.45,-264,16164,-1684,1,0,0
60238,89784.00,502.36,502.45,-224,16572,-1612,1,0,0
60272,89784.00,502.36,502.45,-140,16536,-1784,1,0,0
60305,89783.00,502.45,502.45,-192,16492,-1904,1,0,0
60339,89784.00,502.36,502.44,-236,16568,-1724,1,0,0
60372,89784.00,502.36,502.44,-288,16468,-1916,1,0,0
60406,89784.00,502.36,502.44,-252,16456,-1872,1,0,0
60439,89785.00,502.26,502.44,0,16504,-1848,1,0,0
60477,89785.00,502.26,502.44,-280,16572,-1800,1,0,0
60510,89785.00,502.26,502.44,-220,16500,-1844,1,0,0
60544,89784.00,502.36,502.44,-204,16528,-1788,1,0,0
60577,89784.00,502.36,502.44,-164,16448,-1848,1,0,0
60611,89784.00,502.36,502.44,-240,16572,-2000,1,0,0
60645,89784.00,502.36,502.44,-228,16556,-1864,1,0,0
60678,89784.00,502.36,502.44,-268,16352,-1752,1,0,0
60711,89784.00,502.36,502.44,-256,16424,-2092,1,0,0
60745,89785.00,502.26,502.44,-180,16508,-1820,1,0,0
60782,89785.00,502.26,502.44,-52,16636,-1868,1,0,0
60816,89784.00,502.36,502.44,-52,16920,-2036,1,0,0
60850,89784.00,502.36,502.44,52,16528,-2016,1,0,0
60882,89783.00,502.45,502.44,-48,16628,-2048,1,0,0
60916,89783.00,502.45,502.44,-168,16632,-1872,1,0,0
60950,89784.00,502.36,502.44,44,16612,-1876,1,0,0
60984,89785.00,502.26,502.44,-104,16632,-1884,1,0,0
61017,89784.00,502.36,502.44,-100,16528,-1808,1,0,0
61050,89783.00,502.45,502.44,-60,16460,-1644,1,0,0
61084,89783.00,502.45,502.44,-148,16480,-1892,1,0,0
61121,89784.00,502.36,502.44,-184,16508,-1872,1,0,0
61155,89784.00,502.36,502.44,-492,16636,-1860,1,0,0
61189,89783.00,502.45,502.44,80,16712,-1752,1,0,0
61222,89783.00,502.45,502.44,-252,16388,-2016,1,0,0
61255,89783.00,502.45,502.44,-148,16624,-2032,1,0,0
61289,89784.00,502.36,502.44,-240,16452,-1760,1,0,0
61323,89784.00,502.36,502.44,-224,16448,-1904,1,0,0
61357,89783.00,502.36,502.43,-176,16400,-1892,1,0,0
61389,89783.00,502.45,502.43,-240,16528,-1812,1,0,0
61423,89783.00,502.45,502.43,-116,16600,-1904,1,0,0
61461,89782.00,502.54,502.44,-236,16364,-1736,1,0,0
61494,89782.00,502.54,502.44,-284,16484,-1740,1,0,0
61528,89782.00,502.54,502.44,-188,16604,-1880,1,0,0
61561,89782.00,502.54,502.44,-144,16304,-1680,1,0,0
61595,89782.00,502.54,502.44,-236,16328,-1816,1,0,0
61628,89782.00,502.54,502.44,-212,16528,-1832,1,0,0
61662,89782.00,502.54,502.44,-16,16440,-1780,1,0,0
61696,89782.00,502.54,502.44,-232,16612,-1864,1,0,0
61729,89782.00,502.54,502.44,-152,16480,-1840,1,0,0
61771,89783.00,502.45,502.44,-348,16584,-1856,1,0,0
61809,89783.00,502.45,502.44,-168,16540,-1784,1,0,0
61842,89782.00,502.54,502.44,-168,16520,-1780,1,0,0
61876,89781.00,502.63,502.44,-168,16472,-1724,1,0,0
61910,89781.00,502.63,502.44,-80,16508,-1712,1,0,0
61942,89782.00,502.54,502.44,-364,16716,-1576,1,0,0
61976,89782.00,502.54,502.44,-240,16472,-1636,1,0,0
62021,89783.00,502.45,502.44,-72,16536,-1944,1,0,0
62055,89782.00,502.54,502.44,-252,16372,-1824,1,0,0
62089,89782.00,502.54,502.44,-208,16436,-1868,1,0,0
62126,89783.00,502.45,502.44,-16,16604,-1828,1,0,0
62159,89783.00,502.45,502.44,-128,16564,-1768,1,0,0
62192,89782.00,502.45,502.44,-96,16524,-1788,1,0,0
62226,89782.00,502.54,502.44,-168,16508,-1756,1,0,0
62260,89782.00,502.54,502.44,-80,16408,-1832,1,0,0
62292,89782.00,502.54,502.44,-84,16576,-1860,1,0,0
62326,89782.00,502.54,502.44,-180,16464,-1880,1,0,0
62360,89781.00,502.63,502.44,-60,16508,-1768,1,0,0
62393,89781.00,502.63,502.45,-220,16756,-1768,1,0,0
62427,89782.00,502.54,502.45,-120,16556,-1932,1,0,0
62465,89782.00,502.54,502.45,-380,16420,-1852,1,0,0
62497,89782.00,502.54,502.45,-188,16452,-1796,1,0,0
62531,89783.00,502.45,502.45,-152,16540,-1804,1,0,0
62565,89783.00,502.45,502.45,-196,16456,-1952,1,0,0
62598,89783.00,502.45,502.45,-204,16400,-1808,1,0,0
62631,89783.00,502.45,502.45,-216,16420,-1744,1,0,0
62665,89783.00,502.45,502.45,-200,16528,-1840,1,0,0
62699,89784.00,502.36,502.45,-288,16480,-1640,1,0,0
62732,89784.00,502.36,502.45,-308,16412,-1732,1,0,0
62766,89783.00,502.45,502.45,-252,16340,-1740,1,0,0
62802,89783.00,502.45,502.45,-152,16620,-1864,1,0,0
62836,89782.00,502.54,502.45,-112,16468,-1936,1,0,0
62870,89783.00,502.45,502.45,-88,16488,-1784,1,0,0
62903,89783.00,502.45,502.45,8,16684,-2104,1,0,0
62937,89784.00,502.36,502.45,-296,16620,-1960,1,0,0
62970,89784.00,502.36,502.45,-44,16604,-1916,1,0,0
63003,89784.00,502.36,502.45,-136,16684,-1908,1,0,0
63037,89784.00,502.36,502.45,-276,16508,-1696,1,0,0
63071,89784.00,502.36,502.44,-216,16500,-1468,1,0,0
63108,89784.00,502.36,502.44,-132,16576,-1940,1,0,0
63141,89784.00,502.36,502.44,-264,16392,-1724,1,0,0
63175,89783.00,502.45,502.44,-256,16480,-1840,1,0,0
63208,89783.00,502.45,502.44,-192,16476,-1868,1,0,0
63242,89784.00,502.36,502.44,-176,16516,-1860,1,0,0
63276,89784.00,502.36,502.44,-176,16512,-1976,1,0,0
63308,89783.00,502.45,502.44,-292,16460,-1684,1,0,0
63342,89784.00,502.36,502.44,-256,16552,-1896,1,0,0
63376,89783.00,502.45,502.44,-136,16552,-1792,1,0,0
63409,89783.00,502.45,502.44,-280,16448,-1920,1,0,0
63447,89783.00,502.45,502.44,-116,16424,-1832,1,0,0
63479,89783.00,502.45,502.44,-156,16544,-1944,1,0,0
63513,89784.00,502.36,502.44,-240,16592,-1872,1,0,0
63547,89783.00,502.45,502.44,-84,16420,-1848,1,0,0
63580,89783.00,502.45,502.44,-224,16396,-1856,1,0,0
63613,89784.00,502.36,502.44,-292,16536,-1768,1,0,0
63647,89784.00,502.36,502.44,-208,16464,-1780,1,0,0
63689,89784.00,502.36,502.44,-604,16336,-1656,1,0,0
63723,89784.00,502.36,502.44,-64,16456,-1896,1,0,0
63756,89783.00,502.45,502.44,-224,16472,-1908,1,0,0
63794,89784.00,502.36,502.44,-200,16452,-1768,1,0,0
63826,89783.00,502.45,502.44,-232,16508,-1752,1,0,0
63860,89783.00,502.45,502.44,-228,16564,-1824,1,0,0
63905,89783.00,502.45,502.44,-188,16412,-1688,1,0,0
63939,89783.00,502.45,502.44,-240,16392,-1808,1,0,0
63972,89783.00,502.45,502.44,-192,16408,-1880,1,0,0
64006,89783.00,502.45,502.44,-192,16432,-1892,1,0,0
64039,89783.00,502.45,502.44,-108,16480,-1952,1,0,0
64072,89783.00,502.45,502.44,-212,16484,-1984,1,0,0
64110,89783.00,502.45,502.44,-224,16512,-1724,1,0,0
64143,89782.00,502.54,502.44,-80,16492,-1628,1,0,0
64177,89782.00,502.54,502.44,-212,16516,-1828,1,0,0
64210,89782.00,502.54,502.44,-140,16640,-1908,1,0,0
64243,89782.00,502.54,502.44,-220,16520,-1796,1,0,0
64277,89782.00,502.54,502.44,-200,16760,-1724,1,0,0
64311,89783.00,502.45,502.44,-208,16560,-1920,1,0,0
64345,89783.00,502.45,502.44,-112,16444,-1760,1,0,0
64377,89782.00,502.54,502.44,-200,16596,-1808,1,0,0
64411,89782.00,502.54,502.44,-152,16520,-1808,1,0,0
64448,89782.00,502.54,502.44,-188,16400,-1788,1,0,0
64482,89781.00,502.63,502.44,-316,16424,-1656,1,0,0
64516,89781.00,502.63,502.45,-244,16532,-1648,1,0,0
64548,89782.00,502.54,502.45,-144,16428,-1884,1,0,0
64582,89781.00,502.63,502.45,-264,16556,-1752,1,0,0
64616,89781.00,502.63,502.45,-208,16472,-1932,1,0,0
64649,89780.00,502.73,502.45,-184,16436,-1920,1,0,0
64683,89780.00,502.73,502.45,12,16636,-1984,1,0,0
64716,89781.00,502.63,502.45,-120,16452,-1968,1,0,0
64749,89782.00,502.54,502.45,-208,16672,-1636,1,0,0
64787,89782.00,502.54,502.45,-200,16548,-1872,1,0,0
64820,89781.00,502.63,502.45,-176,16596,-1872,1,0,0
64854,89782.00,502.63,502.45,4,16544,-2096,1,0,0
64886,89781.00,502.63,502.45,-104,16632,-1880,1,0,0
64920,89782.00,502.54,502.45,-96,16548,-1888,1,0,0
64954,89782.00,502.54,502.45,-80,16552,-1888,1,0,0
64987,89782.00,502.54,502.45,-152,16480,-1828,1,0,0
65020,89782.00,502.54,502.45,-184,16548,-1848,1,0,0
65054,89782.00,502.54,502.45,-104,16520,-1740,1,0,0
65087,89782.00,502.54,502.45,-400,15564,-1852,1,0,0
65125,89781.00,502.63,502.45,444,16792,-2040,1,0,0
65158,89782.00,502.54,502.45,-488,16380,-1500,1,0,0
65191,89782.00,502.54,502.45,-232,16436,-1720,1,0,0
65225,89782.00,502.54,502.45,-248,16440,-1680,1,0,0
65258,89781.00,502.63,502.46,-112,16436,-1824,1,0,0
65292,89781.00,502.63,502.46,-156,16568,-1848,1,0,0
65326,89781.00,502.63,502.46,-308,16396,-1788,1,0,0
65358,89780.00,502.73,502.46,-184,16372,-1920,1,0,0
65392,89780.00,502.73,502.46,-112,16536,-1856,1,0,0
65429,89779.00,502.82,502.46,-348,16460,-1728,1,0,0
65463,89779.00,502.82,502.46,-56,16436,-1808,1,0,0
65496,89780.00,502.73,502.46,-300,16332,-1708,1,0,0
65529,89780.00,502.73,502.46,-68,16000,-1756,1,0,0
65563,89780.00,502.73,502.46,-48,16808,-1736,1,0,0
65596,89780.00,502.73,502.46,-528,16464,-1352,1,0,0
65639,89780.00,502.73,502.46,4,16632,-1808,1,0,0
65672,89781.00,502.63,502.47,-96,16412,-1952,1,0,0
65705,89781.00,502.63,502.47,-28,16656,-1944,1,0,0
65738,89780.00,502.73,502.47,-212,17012,-2040,1,0,0
65776,89781.00,502.63,502.47,-608,16472,-2164,1,0,0
65821,89781.00,502.63,502.47,12,16468,-1840,1,0,0
65854,89780.00,502.73,502.47,-176,16536,-1904,1,0,0
65888,89780.00,502.73,502.47,-176,16560,-1804,1,0,0
65921,89780.00,502.73,502.47,-184,16552,-1836,1,0,0
65954,89780.00,502.73,502.47,-64,16628,-1772,1,0,0
65988,89781.00,502.63,502.47,-72,16368,-1936,1,0,0
66021,89780.00,502.73,502.47,-60,16568,-2044,1,0,0
66055,89780.00,502.73,502.47,-192,16596,-2048,1,0,0
66088,89780.00,502.73,502.47,-312,16544,-1840,1,0,0
66125,89780.00,502.73,502.48,-348,16536,-1632,1,0,0
66159,89779.00,502.82,502.48,-312,16360,-1608,1,0,0
66192,89779.00,502.82,502.48,-272,16396,-1784,1,0,0
66226,89779.00,502.82,502.48,-252,16528,-1732,1,0,0
66258,89779.00,502.82,502.48,-180,16468,-1752,1,0,0
66292,89779.00,502.82,502.48,-192,16464,-1868,1,0,0
66326,89780.00,502.73,502.48,-204,16400,-1772,1,0,0
66359,89780.00,502.73,502.48,-224,16380,-1724,1,0,0
66393,89780.00,502.73,502.48,-236,16564,-1684,1,0,0
66429,89780.00,502.73,502.48,-296,16516,-1796,1,0,0
66463,89780.00,502.73,502.49,-72,16512,-2032,1,0,0
66496,89780.00,502.73,502.49,-92,16800,-1936,1,0,0
66530,89780.00,502.73,502.49,-84,16496,-1956,1,0,0
66564,89780.00,502.73,502.49,-20,16512,-1896,1,0,0
66596,89780.00,502.73,502.49,24,16724,-1924,1,0,0
66630,89780.00,502.73,502.49,-184,16548,-1748,1,0,0
66663,89780.00,502.73,502.49,-288,16548,-1840,1,0,0
66697,89779.00,502.82,502.49,-172,16508,-1804,1,0,0
66731,89779.00,502.82,502.49,-292,16576,-1772,1,0,0
66767,89779.00,502.82,502.49,-156,16472,-1860,1,0,0
66800,89779.00,502.82,502.50,-212,16536,-1896,1,0,0
66834,89780.00,502.73,502.50,-248,16484,-1880,1,0,0
66867,89780.00,502.73,502.50,-232,16528,-1844,1,0,0
66899,89779.00,502.82,502.50,-168,16460,-1748,1,0,0
66933,89779.00,502.82,502.50,-132,16560,-1704,1,0,0
66966,89780.00,502.73,502.50,-164,16488,-1880,1,0,0
67000,89780.00,502.73,502.50,-172,16668,-2072,1,0,0
67033,89781.00,502.63,502.50,-208,16596,-1952,1,0,0
67065,89781.00,502.63,502.50,44,15860,-1616,1,0,0
67102,89781.00,502.63,502.50,-332,16488,-1532,1,0,0
67136,89781.00,502.63,502.50,-176,16500,-1672,1,0,0
67169,89780.00,502.73,502.50,-208,16376,-1768,1,0,0
67203,89780.00,502.73,502.50,-124,16436,-1828,1,0,0
67235,89779.00,502.82,502.50,-88,16664,-1932,1,0,0
67268,89779.00,502.82,502.51,-280,16520,-1768,1,0,0
67302,89780.00,502.73,502.51,-196,16480,-1928,1,0,0
67335,89780.00,502.73,502.51,-132,16608,-1944,1,0,0
67368,89781.00,502.63,502.51,-224,16560,-1768,1,0,0
67401,89780.00,502.73,502.51,-356,16496,-1532,1,0,0
67438,89781.00,502.63,502.51,-188,16464,-1808,1,0,0
67472,89781.00,502.63,502.51,-32,16372,-1848,1,0,0
67506,89781.00,502.63,502.51,-352,16664,-1756,1,0,0
67549,89782.00,502.54,502.51,-284,16580,-1668,1,0,0
67582,89782.00,502.54,502.51,100,16624,-1868,1,0,0
67615,89782.00,502.54,502.51,-292,16416,-1688,1,0,0
67649,89782.00,502.54,502.51,-60,16604,-1628,1,0,0
67683,89782.00,502.54,502.51,-180,16500,-1800,1,0,0
67729,89781.00,502.63,502.51,92,16556,-2016,1,0,0
67766,89782.00,502.54,502.51,-248,16876,-1652,1,0,0
67800,89781.00,502.54,502.51,-368,16416,-1736,1,0,0
67833,89782.00,502.54,502.51,-88,16460,-1760,1,0,0
67867,89781.00,502.63,502.51,-120,16632,-1784,1,0,0
67901,89781.00,502.63,502.51,-252,16512,-1704,1,0,0
67935,89781.00,502.63,502.51,-224,16532,-1756,1,0,0
67968,89781.00,502.63,502.51,-192,16528,-1760,1,0,0
68001,89781.00,502.63,502.51,-192,16488,-1816,1,0,0
68035,89782.00,502.54,502.51,-336,16524,-1884,1,0,0
68069,89781.00,502.63,502.51,-268,16372,-1932,1,0,0
68106,89781.00,502.63,502.51,-296,16556,-1636,1,0,0
68140,89780.00,502.73,502.52,-244,16468,-1564,1,0,0
68173,89780.00,502.73,502.52,-244,16556,-1728,1,0,0
68207,89780.00,502.73,502.52,-300,16616,-1868,1,0,0
68241,89780.00,502.73,502.52,-40,16476,-1796,1,0,0
68275,89781.00,502.63,502.52,-236,16588,-1780,1,0,0
68307,89779.00,502.82,502.52,-208,16372,-1820,1,0,0
68341,89779.00,502.82,502.52,-184,16536,-1600,1,0,0
68375,89780.00,502.73,502.52,-280,16504,-1460,1,0,0
68409,89781.00,502.63,502.52,-136,16620,-1792,1,0,0
68446,89782.00,502.54,502.52,-96,16612,-2080,1,0,0
68480,89782.00,502.54,502.52,-104,16476,-1936,1,0,0
68513,89782.00,502.54,502.52,-120,16696,-2004,1,0,0
68547,89781.00,502.63,502.52,-72,16376,-1944,1,0,0
68581,89781.00,502.63,502.52,-128,16624,-1884,1,0,0
68614,89781.00,502.63,502.52,-44,16760,-1780,1,0,0
68647,89781.00,502.63,502.52,-136,16488,-1804,1,0,0
68681,89780.00,502.73,502.52,-244,16440,-1684,1,0,0
68715,89780.00,502.73,502.52,-1452,16556,-2400,1,0,0
68752,89780.00,502.73,502.52,628,16780,-1412,1,0,0
68786,89779.00,502.82,502.53,-692,16644,-1972,1,0,0
68819,89779.00,502.82,502.53,176,16528,-1836,1,0,0
68853,89779.00,502.82,502.53,180,16732,-2192,1,0,0
68887,89779.00,502.82,502.53,-312,16364,-1932,1,0,0
68920,89780.00,502.73,502.53,-52,16428,-1808,1,0,0
68954,89781.00,502.63,502.53,-316,16528,-1888,1,0,0
68987,89781.00,502.63,502.53,-68,16500,-1748,1,0,0
69021,89781.00,502.63,502.53,-356,16516,-1744,1,0,0
69055,89781.00,502.63,502.53,-128,16488,-1736,1,0,0
69092,89781.00,502.63,502.53,-176,16556,-1804,1,0,0
69126,89781.00,502.63,502.53,-296,16564,-1848,1,0,0
69159,89781.00,502.63,502.53,-120,16400,-1944,1,0,0
69192,89780.00,502.73,502.53,-192,16488,-1932,1,0,0
69226,89780.00,502.73,502.53,348,17352,-2192,1,0,0
69260,89780.00,502.73,502.53,240,16744,-1748,1,0,0
69294,89780.00,502.73,502.53,-372,16508,-1940,1,0,0
69327,89781.00,502.63,502.53,-20,16360,-1740,1,0,0
69361,89781.00,502.63,502.54,-420,16472,-1768,1,0,0
69394,89781.00,502.63,502.54,-148,16328,-1748,1,0,0
69432,89783.00,502.45,502.54,-260,16288,-1680,1,0,0
69466,89783.00,502.45,502.53,-136,16392,-1824,1,0,0
69508,89782.00,502.54,502.53,56,16528,-1972,1,0,0
69541,89782.00,502.54,502.53,-460,16632,-1696,1,0,0
69575,89782.00,502.54,502.53,-96,16596,-2084,1,0,0
69620,89781.00,502.63,502.54,-204,16448,-1824,1,0,0
69654,89781.00,502.63,502.54,-248,16396,-1660,1,0,0
69688,89781.00,502.63,502.54,-264,16340,-1880,1,0,0
69722,89782.00,502.54,502.54,-128,16536,-1964,1,0,0
69755,89782.00,502.54,502.54,-112,16472,-2108,1,0,0
69792,89783.00,502.45,502.54,-128,16460,-1760,1,0,0
69826,89783.00,502.45,502.54,-204,16816,-2016,1,0,0
69860,89782.00,502.54,502.54,-216,16640,-1912,1,0,0
69893,89782.00,502.54,502.54,-168,16672,-1900,1,0,0
69926,89782.00,502.54,502.54,-192,16404,-1768,1,0,0
69960,89783.00,502.45,502.53,-112,16612,-1900,1,0,0
69994,89783.00,502.45,502.53,-740,16584,-1484,1,0,0
70028,89782.00,502.54,502.53,-224,16516,-1648,1,0,0
70061,89783.00,502.45,502.53,-172,16392,-1660,1,0,0
70098,89783.00,502.45,502.53,116,16584,-2228,1,0,0
70132,89782.00,502.54,502.53,-16,16596,-2040,1,0,0
70165,89782.00,502.54,502.53,-156,16596,-1920,1,0,0
70199,89782.00,502.54,502.53,-100,16488,-1928,1,0,0
70233,89783.00,502.45,502.53,-196,16564,-1912,1,0,0
70266,89782.00,502.54,502.53,-208,16592,-1736,1,0,0
70299,89782.00,502.54,502.53,-164,16584,-1860,1,0,0
70333,89782.00,502.54,502.53,-148,16592,-1768,1,0,0
70367,89782.00,502.54,502.53,-196,16244,-1648,1,0,0
70401,89783.00,502.45,502.53,-56,16648,-1716,1,0,0
70437,89783.00,502.45,502.53,-284,16484,-1604,1,0,0
70471,89783.00,502.45,502.53,20,16464,-1848,1,0,0
70505,89783.00,502.45,502.53,-364,16412,-1760,1,0,0
70538,89783.00,502.45,502.53,-228,16364,-1732,1,0,0
70572,89783.00,502.45,502.53,-120,16520,-1992,1,0,0
70605,89783.00,502.45,502.53,-196,16404,-1812,1,0,0
70639,89782.00,502.54,502.53,-152,16364,-1800,1,0,0
70672,89783.00,502.45,502.53,-324,16472,-1732,1,0,0
70706,89782.00,502.54,502.53,-164,16484,-1888,1,0,0
70739,89782.00,502.54,502.53,-164,16420,-1572,1,0,0
70777,89783.00,502.45,502.53,-228,16528,-1708,1,0,0
70810,89783.00,502.45,502.53,-96,16636,-1780,1,0,0
70844,89783.00,502.45,502.53,-92,16480,-1920,1,0,0
70878,89783.00,502.45,502.53,-260,16664,-1784,1,0,0
70912,89782.00,502.54,502.53,-248,16560,-1740,1,0,0
70944,89783.00,502.54,502.53,-68,16584,-1776,1,0,0
70978,89783.00,502.45,502.53,-184,16456,-1764,1,0,0
71012,89784.00,502.36,502.53,-252,16620,-1720,1,0,0
71046,89783.00,502.45,502.53,-96,16716,-1908,1,0,0
71083,89783.00,502.45,502.53,-200,16520,-1848,1,0,0
71116,89784.00,502.36,502.53,-204,16452,-1816,1,0,0
71150,89784.00,502.36,502.53,-200,16552,-1776,1,0,0
71183,89784.00,502.36,502.53,-276,16360,-1936,1,0,0
71217,89784.00,502.36,502.53,-208,16520,-1852,1,0,0
71250,89783.00,502.45,502.53,44,16452,-2024,1,0,0
71284,89783.00,502.45,502.53,-200,16776,-1968,1,0,0
71317,89783.00,502.45,502.53,-52,16448,-1944,1,0,0
71351,89783.00,502.45,502.53,0,16564,-1832,1,0,0
71385,89783.00,502.36,502.53,-40,16568,-1844,1,0,0
71431,89783.00,502.45,502.53,-232,16592,-1840,1,0,0
71464,89783.00,502.45,502.53,-272,16480,-1768,1,0,0
71511,89784.00,502.36,502.53,-112,16568,-1972,1,0,0
71543,89783.00,502.45,502.52,-204,16576,-1796,1,0,0
71577,89784.00,502.36,502.52,-164,16520,-1852,1,0,0
71611,89783.00,502.45,502.52,-148,16588,-1756,1,0,0
71645,89783.00,502.45,502.52,-236,16524,-1752,1,0,0
71677,89781.00,502.63,502.52,-100,16472,-1776,1,0,0
71711,89782.00,502.54,502.52,-32,16556,-1908,1,0,0
71745,89784.00,502.36,502.52,-68,16540,-1804,1,0,0
71782,89784.00,502.36,502.52,28,16480,-2036,1,0,0
71816,89783.00,502.45,502.52,-312,16416,-1776,1,0,0
71849,89783.00,502.45,502.52,-392,16404,-1508,1,0,0
71882,89783.00,502.45,502.52,-272,16380,-1860,1,0,0
71916,89783.00,502.45,502.52,-264,16328,-1696,1,0,0
71950,89783.00,502.45,502.52,-216,16452,-1796,1,0,0
71984,89783.00,502.45,502.52,-220,16472,-1852,1,0,0
72016,89783.00,502.45,502.52,-132,16532,-1856,1,0,0
72050,89783.00,502.45,502.52,-248,16404,-1844,1,0,0
72084,89784.00,502.36,502.52,-264,16476,-1924,1,0,0
72121,89783.00,502.45,502.52,-188,16460,-1872,1,0,0
72155,89783.00,502.36,502.52,-188,16348,-1796,1,0,0
72188,89783.00,502.45,502.52,-208,16672,-1764,1,0,0
72222,89782.00,502.54,502.52,-172,16564,-1724,1,0,0
72255,89781.00,502.63,502.52,-180,16536,-1896,1,0,0
72289,89781.00,502.63,502.52,-120,16420,-1800,1,0,0
72323,89782.00,502.54,502.52,-264,16468,-1636,1,0,0
72356,89781.00,502.63,502.52,-124,16548,-1784,1,0,0
72389,89781.00,502.63,502.52,-216,16488,-1792,1,0,0
72427,89782.00,502.54,502.52,-172,16212,-1496,1,0,0
72460,89782.00,502.54,502.52,-260,16416,-1704,1,0,0
72494,89782.00,502.54,502.52,-300,16456,-1744,1,0,0
72527,89782.00,502.54,502.52,-216,16584,-1820,1,0,0
72561,89782.00,502.54,502.52,-124,16532,-1896,1,0,0
72594,89782.00,502.45,502.52,-80,16596,-1896,1,0,0
72628,89781.00,502.63,502.52,-28,16628,-1976,1,0,0
72662,89781.00,502.63,502.52,-76,16584,-2060,1,0,0
72694,89781.00,502.63,502.52,-92,16652,-2152,1,0,0
72728,89782.00,502.54,502.52,-140,16724,-1992,1,0,0
72766,89782.00,502.54,502.52,-184,16460,-1792,1,0,0
72799,89783.00,502.45,502.52,-336,16468,-1968,1,0,0
72833,89782.00,502.54,502.52,-200,16516,-1852,1,0,0
72866,89783.00,502.45,502.52,-112,16528,-1812,1,0,0
72900,89783.00,502.45,502.52,-280,16548,-1812,1,0,0
72933,89782.00,502.54,502.52,-316,16376,-1840,1,0,0
72967,89782.00,502.54,502.52,-164,16380,-1780,1,0,0
73000,89782.00,502.54,502.52,-116,16412,-1828,1,0,0
73034,89782.00,502.54,502.52,-172,16540,-1996,1,0,0
73067,89782.00,502.54,502.52,-256,16416,-1568,1,0,0
73105,89782.00,502.54,502.52,-144,16572,-2024,1,0,0
73138,89782.00,502.54,502.52,-56,16624,-1984,1,0,0
73171,89782.00,502.54,502.52,-64,16480,-1936,1,0,0
73205,89782.00,502.54,502.52,-136,16528,-1928,1,0,0
73239,89783.00,502.45,502.52,-56,16464,-1728,1,0,0
73272,89782.00,502.54,502.52,-148,16460,-1668,1,0,0
73306,89781.00,502.63,502.52,-224,16632,-1600,1,0,0
73339,89781.00,502.63,502.52,-144,16572,-1732,1,0,0
73394,89780.00,502.73,502.52,-96,16588,-1948,1,0,0
73432,89780.00,502.73,502.52,-96,16488,-1752,1,0,0
73464,89781.00,502.63,502.52,-8,16652,-1784,1,0,0
73498,89781.00,502.63,502.52,-248,16468,-1804,1,0,0
73532,89781.00,502.63,502.53,-144,16556,-1784,1,0,0
73565,89782.00,502.54,502.53,-96,16588,-1844,1,0,0
73598,89781.00,502.63,502.53,-136,16664,-2024,1,0,0
73632,89781.00,502.63,502.53,-140,16640,-1848,1,0,0
73665,89782.00,502.54,502.53,-228,16496,-1588,1,0,0
73699,89782.00,502.54,502.53,-168,16508,-1800,1,0,0
73733,89782.00,502.54,502.53,-132,16404,-1804,1,0,0
73769,89782.00,502.54,502.53,-136,16520,-1928,1,0,0
73803,89782.00,502.54,502.53,-264,16484,-1856,1,0,0
73837,89782.00,502.54,502.53,-120,16496,-1896,1,0,0
73870,89782.00,502.54,502.53,-168,16452,-1800,1,0,0
73904,89782.00,502.54,502.53,-104,16548,-1768,1,0,0
73937,89782.00,502.54,502.53,-144,16500,-1920,1,0,0
73971,89782.00,502.54,502.53,-188,16556,-1840,1,0,0
74004,89782.00,502.54,502.53,-288,16396,-1692,1,0,0
74038,89782.00,502.54,502.53,-112,16592,-1832,1,0,0
74072,89781.00,502.63,502.53,-124,16452,-1812,1,0,0
74108,89781.00,502.63,502.53,-168,16548,-1856,1,0,0
74142,89781.00,502.63,502.53,-288,16412,-1876,1,0,0
74175,89781.00,502.63,502.53,-236,16424,-1716,1,0,0
74209,89782.00,502.54,502.53,-152,16488,-1744,1,0,0
74243,89782.00,502.54,502.53,-300,16496,-1788,1,0,0
74276,89781.00,502.63,502.53,-212,16560,-1848,1,0,0
74309,89781.00,502.63,502.53,-120,16440,-1956,1,0,0
74343,89780.00,502.73,502.53,-196,16400,-1960,1,0,0
74377,89781.00,502.63,502.53,-56,16448,-1892,1,0,0
74414,89781.00,502.63,502.53,-240,16508,-1812,1,0,0
74447,89781.00,502.63,502.53,-144,16624,-1872,1,0,0
74480,89781.00,502.63,502.53,-136,16528,-1796,1,0,0
74514,89782.00,502.54,502.53,-304,16608,-1720,1,0,0
74548,89782.00,502.54,502.53,-228,16508,-1812,1,0,0
74580,89782.00,502.54,502.53,-220,16448,-1808,1,0,0
74614,89782.00,502.54,502.53,-88,16612,-1880,1,0,0
74648,89782.00,502.54,502.53,-204,16548,-1772,1,0,0
74681,89782.00,502.54,502.53,-264,16508,-1764,1,0,0
74715,89782.00,502.54,502.53,-148,16504,-1756,1,0,0
74752,89781.00,502.63,502.53,-248,16556,-1852,1,0,0
74785,89781.00,502.63,502.53,-136,16412,-1740,1,0,0
74819,89782.00,502.54,502.53,-264,16376,-1708,1,0,0
74852,89782.00,502.54,502.53,-288,16416,-1844,1,0,0
74886,89782.00,502.54,502.53,-192,16432,-1932,1,0,0
74919,89782.00,502.54,502.53,-308,16532,-1828,1,0,0
74952,89782.00,502.54,502.53,-232,16440,-1704,1,0,0
74986,89782.00,502.54,502.53,-172,16436,-1836,1,0,0
75020,89783.00,502.45,502.53,-152,16492,-1852,1,0,0
75053,89782.00,502.54,502.53,-188,16344,-1884,1,0,0
75090,89781.00,502.63,502.53,-232,16344,-1908,1,0,0
75123,89782.00,502.54,502.53,-124,16456,-1724,1,0,0
75157,89781.00,502.63,502.53,-164,16644,-1864,1,0,0
75191,89781.00,502.63,502.53,-136,16572,-1696,1,0,0
75224,89781.00,502.63,502.53,-240,16512,-1668,1,0,0
75270,89781.00,502.63,502.53,-284,16404,-1840,1,0,0
75312,89781.00,502.63,502.53,-260,16556,-1880,1,0,0
75345,89782.00,502.54,502.53,-236,16232,-1564,1,0,0
75379,89781.00,502.63,502.53,-276,16548,-1800,1,0,0
75416,89781.00,502.63,502.53,-176,16504,-1632,1,0,0
75450,89781.00,502.63,502.53,-144,16568,-1952,1,0,0
75483,89780.00,502.73,502.53,-56,16544,-1788,1,0,0
75516,89780.00,502.73,502.53,-228,16464,-1792,1,0,0
75550,89781.00,502.63,502.53,-232,16624,-1904,1,0,0
75583,89781.00,502.63,502.53,-216,16536,-1772,1,0,0
75617,89782.00,502.54,502.53,-180,16472,-1720,1,0,0
75651,89781.00,502.63,502.53,-188,16476,-1936,1,0,0
75683,89782.00,502.54,502.53,-108,16576,-1848,1,0,0
75717,89781.00,502.63,502.54,-148,16476,-1780,1,0,0
75754,89781.00,502.63,502.54,-168,16344,-1780,1,0,0
75788,89780.00,502.73,502.54,-120,16508,-1992,1,0,0
75822,89781.00,502.63,502.54,-180,16412,-1912,1,0,0
75854,89780.00,502.73,502.54,-200,16580,-1752,1,0,0
75888,89780.00,502.73,502.54,-336,16540,-1844,1,0,0
75922,89780.00,502.73,502.54,-96,16468,-1932,1,0,0
75955,89781.00,502.63,502.54,-148,16496,-1828,1,0,0
75988,89781.00,502.63,502.54,-100,16492,-1796,1,0,0
76022,89780.00,502.73,502.54,-120,16492,-1880,1,0,0
76055,89780.00,502.73,502.54,-264,16480,-1796,1,0,0
76093,89780.00,502.73,502.54,-96,16632,-1804,1,0,0
76126,89780.00,502.73,502.54,-136,16516,-1788,1,0,0
76160,89782.00,502.54,502.54,-184,16428,-1804,1,0,0
76193,89782.00,502.54,502.54,-192,16544,-1812,1,0,0
76226,89782.00,502.54,502.54,-92,16604,-1928,1,0,0
76260,89782.00,502.54,502.54,-220,16568,-1688,1,0,0
76294,89783.00,502.45,502.54,-80,16496,-1856,1,0,0
76326,89783.00,502.45,502.54,-156,16504,-1788,1,0,0
76360,89781.00,502.63,502.54,-300,16492,-1768,1,0,0
76393,89781.00,502.63,502.54,-104,16552,-1900,1,0,0
76431,89781.00,502.63,502.54,-308,16460,-1716,1,0,0
76464,89782.00,502.54,502.54,-168,16536,-1912,1,0,0
76497,89782.00,502.54,502.54,-128,16468,-1832,1,0,0
76531,89783.00,502.54,502.54,-176,16560,-1836,1,0,0
76564,89783.00,502.45,502.54,-248,16444,-1792,1,0,0
76598,89782.00,502.54,502.54,-160,16492,-1888,1,0,0
76632,89782.00,502.54,502.54,-228,16440,-1868,1,0,0
76664,89782.00,502.54,502.54,-224,16400,-1824,1,0,0
76698,89782.00,502.54,502.54,-244,16552,-1812,1,0,0
76735,89782.00,502.54,502.54,-164,16508,-1816,1,0,0
76769,89782.00,502.54,502.54,-244,16584,-1740,1,0,0
76802,89782.00,502.54,502.54,-68,16548,-1920,1,0,0
76835,89782.00,502.54,502.54,-80,16496,-1776,1,0,0
76868,89782.00,502.54,502.54,-112,16588,-1936,1,0,0
76902,89781.00,502.63,502.54,-148,16652,-1868,1,0,0
76936,89781.00,502.63,502.54,-136,16584,-1744,1,0,0
76968,89781.00,502.63,502.54,-152,16444,-1920,1,0,0
77002,89782.00,502.54,502.54,-208,16544,-1820,1,0,0
77036,89782.00,502.54,502.54,-188,16540,-1768,1,0,0
77073,89782.00,502.54,502.54,-268,16416,-1920,1,0,0
77106,89781.00,502.63,502.54,-240,16472,-2016,1,0,0
77152,89782.00,502.54,502.54,-216,16568,-1868,1,0,0
77186,89781.00,502.63,502.54,-108,16612,-1816,1,0,0
77218,89782.00,502.54,502.54,-144,16580,-1880,1,0,0
77261,89782.00,502.54,502.54,-44,16652,-1916,1,0,0
77294,89782.00,502.54,502.54,-88,16452,-1864,1,0,0
77328,89781.00,502.63,502.54,-20,16440,-1928,1,0,0
77361,89781.00,502.63,502.54,-48,16576,-1956,1,0,0
77394,89782.00,502.54,502.54,-256,16540,-1700,1,0,0
77431,89782.00,502.54,502.54,-188,16632,-1868,1,0,0
77465,89782.00,502.54,502.54,-176,16480,-1800,1,0,0
77498,89782.00,502.54,502.54,-304,16308,-1832,1,0,0
77531,89783.00,502.45,502.54,-168,16464,-1808,1,0,0
77564,89783.00,502.54,502.54,-236,16328,-1736,1,0,0
77597,89782.00,502.54,502.54,-180,16444,-1912,1,0,0
77631,89783.00,502.45,502.54,-336,16376,-1720,1,0,0
77664,89783.00,502.45,502.54,-328,16460,-1684,1,0,0
77698,89782.00,502.54,502.54,-136,16448,-1792,1,0,0
77888,89783.00,502.45,502.54,-192,16404,-1776,1,0,0
77921,89782.00,502.54,502.54,-140,16424,-1880,1,0,0
77955,89782.00,502.54,502.54,-204,16440,-1712,1,0,0
77987,89782.00,502.54,502.54,-124,16508,-1800,1,0,0
78021,89782.00,502.54,502.54,-140,16508,-1940,1,0,0
78054,89781.00,502.63,502.54,-320,16408,-1788,1,0,0
78088,89781.00,502.63,502.54,-68,16528,-2004,1,0,0
78120,89780.00,502.73,502.54,-184,16468,-1816,1,0,0
78154,89780.00,502.73,502.54,-56,16576,-1832,1,0,0
78187,89780.00,502.73,502.54,-160,16552,-1636,1,0,0
78224,89780.00,502.82,502.54,-264,16388,-1776,1,0,0
78258,89780.00,502.73,502.54,-108,16528,-1996,1,0,0
78291,89781.00,502.63,502.54,-156,16460,-1788,1,0,0
78325,89781.00,502.63,502.54,-248,16488,-1676,1,0,0
78359,89780.00,502.73,502.54,-152,16500,-1972,1,0,0
78393,89780.00,502.73,502.54,-212,16512,-1908,1,0,0
78426,89780.00,502.73,502.55,-156,16500,-1880,1,0,0
78459,89779.00,502.82,502.55,-144,16480,-1800,1,0,0
78493,89779.00,502.82,502.55,-208,16652,-1904,1,0,0
78527,89779.00,502.82,502.55,-152,16580,-1960,1,0,0
78565,89779.00,502.82,502.55,-160,16436,-1936,1,0,0
78599,89779.00,502.82,502.55,-104,16448,-1840,1,0,0
78631,89779.00,502.82,502.55,-232,16420,-1872,1,0,0
78665,89780.00,502.73,502.55,-264,16488,-1872,1,0,0
78699,89781.00,502.63,502.55,-244,16600,-1880,1,0,0
78733,89781.00,502.63,502.55,-172,16436,-1756,1,0,0
78767,89781.00,502.63,502.55,-28,16448,-1812,1,0,0
78800,89780.00,502.73,502.55,-1272,15680,-1148,1,0,0
78834,89779.00,502.82,502.55,-60,16464,-1944,1,0,0
78871,89778.00,502.91,502.55,-484,16100,-2148,1,0,0
78905,89779.00,502.82,502.55,-212,16340,-1652,1,0,0
78939,89779.00,502.82,502.55,0,16616,-2068,1,0,0
78972,89780.00,502.82,502.55,-184,16556,-1948,1,0,0
79005,89780.00,502.73,502.55,-252,16360,-1704,1,0,0
79039,89780.00,502.73,502.55,-68,16532,-1760,1,0,0
79073,89779.00,502.82,502.56,-412,16688,-1532,1,0,0
79107,89779.00,502.82,502.56,3068,15772,-3772,1,0,0
79140,89779.00,502.82,502.56,-4740,16760,136,1,0,0
79174,89778.00,502.91,502.56,-824,16272,-1560,1,0,0
79224,89778.00,502.91,502.56,-64,16420,-1700,1,0,0
79257,89777.00,502.91,502.56,216,16596,-1884,1,0,0
79300,89778.00,502.91,502.56,-428,16544,-1544,1,0,0
79334,89778.00,502.91,502.56,-296,16608,-1876,1,0,0
79368,89778.00,502.91,502.56,-128,16408,-1940,1,0,0
79400,89778.00,502.91,502.56,-108,16532,-1732,1,0,0
79434,89779.00,502.82,502.56,-96,16624,-1772,1,0,0
