t,p,alt,KMF,ax,ay,az,gx,gy,gz,roll,pitch,RAM,Launch,Apo,Land
26429,95009.01,541.70,542.38,1.59,0.07,0.01,-8.60,1.96,3.54,79.93,-87.44,571,1,0,0
26464,95000.22,542.47,542.38,2.00,-0.07,-0.12,4.89,11.18,-0.46,-147.77,-86.09,571,1,0,0
26499,95004.85,541.85,542.38,2.00,-0.08,-0.19,1.88,13.73,0.96,-156.66,-84.22,571,1,0,0
26533,95000.60,542.44,542.38,2.00,0.06,-0.21,5.56,15.26,-3.50,164.76,-83.94,571,1,0,0
26567,94995.00,542.93,542.38,1.66,0.08,0.08,12.30,7.80,-13.74,45.19,-86.28,571,1,0,0
26602,94995.75,542.86,542.39,1.17,-0.00,0.03,42.60,12.64,-19.18,-3.40,-88.59,571,1,0,0
26641,94998.89,542.59,542.39,0.65,0.02,0.12,-3.78,9.22,-12.28,8.36,-79.38,571,1,0,0
26677,94998.89,543.21,542.39,0.48,0.04,-0.02,23.35,10.51,-6.74,119.61,-84.08,571,1,0,0
26712,94990.49,543.32,542.39,0.34,0.09,-0.00,-3.06,5.79,-1.39,92.50,-75.13,571,1,0,0
26746,94996.09,542.83,542.39,0.65,0.07,0.28,-10.06,3.66,1.20,14.76,-65.58,571,1,0,0
26781,94995.75,542.86,542.39,0.32,0.03,0.06,2.49,7.03,3.40,26.65,-77.58,571,1,0,0
26817,95002.42,542.28,542.39,0.38,0.07,-0.06,-18.77,-2.68,4.77,129.70,-75.88,571,1,0,0
26856,94998.17,542.80,542.39,0.56,0.02,0.09,-13.32,-10.61,4.82,11.43,-81.00,571,1,0,0
26891,94998.89,542.59,542.39,0.60,0.08,-0.13,-26.82,-20.31,4.81,146.84,-75.89,571,1,0,0
26926,94992.94,543.11,542.40,0.80,0.05,-0.08,-17.40,-25.32,2.94,146.79,-83.53,571,1,0,0
26961,94992.19,542.89,542.40,1.02,0.01,-0.00,-29.51,-26.18,1.81,107.60,-89.41,571,1,0,0
26996,94992.57,543.14,542.40,1.03,0.04,-0.05,-17.74,-20.20,2.27,142.97,-86.41,571,1,0,0
27035,94995.37,542.83,542.40,1.00,0.06,-0.09,-9.79,-11.20,0.68,146.47,-83.88,571,1,0,0
27070,95001.35,542.37,542.40,1.03,0.02,-0.08,-23.33,-8.06,2.36,163.53,-85.62,571,1,0,0
27105,94984.16,543.88,542.40,1.01,0.01,-0.10,-0.06,0.08,2.22,172.97,-84.07,571,1,0,0
27140,94995.37,542.89,542.40,1.03,0.01,-0.09,0.30,8.50,1.72,176.04,-84.94,571,1,0,0
27174,94996.82,542.77,542.41,1.04,0.00,-0.07,1.55,10.44,2.43,178.87,-85.97,571,1,0,0
27210,95001.70,542.34,542.41,0.96,0.06,-0.12,9.86,16.32,2.12,154.98,-82.02,571,1,0,0
27249,94995.11,542.92,542.41,1.01,-0.01,-0.10,14.11,15.87,-1.08,-176.45,-84.25,571,1,0,0
27284,94990.49,543.32,542.41,0.95,-0.02,-0.13,3.23,15.70,1.59,-169.60,-82.34,571,1,0,0
27319,94990.83,543.26,542.41,0.97,0.02,-0.08,6.93,14.10,2.24,167.55,-84.95,571,1,0,0
27354,94994.39,542.98,542.41,1.00,-0.01,-0.09,3.22,11.38,2.49,-174.15,-84.83,571,1,0,0
27389,94996.44,542.80,542.41,0.91,0.00,-0.11,1.11,9.61,3.38,179.75,-83.36,571,1,0,0
27424,94993.28,542.80,542.41,0.97,0.01,-0.11,-8.58,5.54,3.42,173.77,-83.51,571,1,0,0
27463,94993.28,542.83,542.42,0.94,0.02,-0.10,1.17,2.82,3.59,166.31,-83.87,571,1,0,0
27498,94996.82,542.80,542.42,1.00,0.03,-0.02,-1.45,1.37,3.80,121.42,-88.16,571,1,0,0
27533,94991.21,543.26,542.42,0.98,0.06,-0.03,-2.66,2.19,5.97,115.09,-86.07,571,1,0,0
27568,94993.28,543.08,542.42,1.04,0.05,-0.02,9.71,3.32,6.43,113.73,-86.73,571,1,0,0
27603,94991.21,543.29,542.42,0.96,0.04,-0.05,-4.22,4.29,8.58,139.97,-86.44,571,1,0,0
27638,94999.61,542.52,542.42,0.95,0.09,0.02,-4.13,4.18,13.18,78.27,-84.54,571,1,0,0
27685,94990.49,543.32,542.43,0.99,0.06,-0.03,10.29,5.52,16.40,118.49,-85.85,571,1,0,0
27720,94993.64,543.05,542.43,0.93,0.05,-0.06,5.05,4.94,19.78,138.96,-85.25,571,1,0,0
27755,94996.44,543.05,542.43,0.97,0.04,-0.05,4.06,3.15,22.25,140.94,-85.96,571,1,0,0
27790,94986.35,543.68,542.43,0.97,0.04,-0.04,-13.15,1.14,25.31,136.33,-86.46,571,1,0,0
27826,94991.58,543.23,542.43,0.96,0.05,-0.04,8.07,-0.43,25.72,132.19,-86.24,571,1,0,0
27860,94994.77,542.95,542.44,1.01,0.03,-0.03,1.59,-1.92,26.39,140.05,-87.44,571,1,0,0
27899,94985.97,543.72,542.44,1.06,0.03,-0.03,5.58,-4.82,25.53,134.35,-87.57,571,1,0,0
27934,94991.96,542.70,542.44,1.02,0.04,-0.03,4.58,-6.79,23.78,131.83,-87.21,571,1,0,0
27969,94985.97,543.72,542.44,1.05,0.07,-0.03,0.79,-9.41,20.58,110.88,-86.03,571,1,0,0
28004,94995.11,542.92,542.44,1.00,0.09,-0.04,9.43,-11.16,14.71,115.37,-84.08,571,1,0,0
28039,94985.97,543.72,542.45,1.02,0.09,-0.02,9.67,-12.76,9.32,104.43,-85.05,571,1,0,0
28073,94991.96,543.19,542.45,1.02,0.10,-0.04,11.83,-13.37,3.85,111.33,-84.27,571,1,0,0
28113,94983.89,542.88,542.45,1.04,0.07,-0.07,23.67,-14.14,-2.20,133.19,-84.59,571,1,0,0
28156,94997.91,542.67,542.45,1.02,0.09,-0.05,18.96,-14.53,-7.01,120.69,-84.24,571,1,0,0
28190,94997.91,542.67,542.45,1.03,0.09,-0.06,28.75,-13.76,-10.63,125.71,-83.93,571,1,0,0
28224,94994.39,542.98,542.45,1.01,0.10,-0.06,30.61,-13.53,-13.21,121.46,-83.62,571,1,0,0
28258,94996.24,543.06,542.46,1.01,0.08,-0.07,30.25,-12.56,-15.08,129.85,-83.80,571,1,0,0
28292,94992.30,543.03,542.46,0.98,0.08,-0.08,36.64,-11.20,-15.98,134.02,-83.60,571,1,0,0
28329,94987.08,543.62,542.46,1.00,0.07,-0.08,37.99,-9.50,-16.76,136.24,-84.07,571,1,0,0
28363,94987.08,543.62,542.46,0.99,0.07,-0.10,36.41,-8.51,-16.19,145.50,-82.69,571,1,0,0
28397,94987.08,543.66,542.47,0.97,0.10,-0.10,42.30,-9.10,-17.05,133.90,-81.67,571,1,0,0
28431,94987.46,543.59,542.47,0.93,0.07,-0.15,41.81,-9.69,-17.52,154.48,-79.69,571,1,0,0
28465,94995.86,542.85,542.47,0.93,0.08,-0.17,36.96,-10.88,-18.02,156.14,-78.58,571,1,0,0
28502,94993.06,543.10,542.47,1.00,0.07,-0.13,32.37,-12.85,-18.32,153.15,-81.71,571,1,0,0
28535,94987.46,542.79,542.47,0.99,0.08,-0.08,31.53,-13.21,-19.55,135.83,-83.71,571,1,0,0
28569,94983.89,543.90,542.48,1.08,0.01,-0.06,38.41,-12.02,-20.92,170.08,-86.62,571,1,0,0
28603,94992.67,543.13,542.48,1.07,-0.00,-0.05,32.24,-10.39,-22.45,-174.57,-87.26,571,1,0,0
28637,94984.64,543.84,542.48,1.09,-0.01,-0.01,30.30,-7.48,-23.79,-116.57,-89.17,571,1,0,0
28670,94987.83,543.56,542.49,1.08,-0.04,-0.05,31.77,-4.79,-24.79,-145.82,-86.69,571,1,0,0
28708,94992.67,543.13,542.49,1.00,-0.07,-0.10,32.95,-2.81,-26.41,-145.77,-83.19,571,1,0,0
28742,94987.46,543.59,542.49,1.01,-0.10,-0.09,26.02,-2.65,-27.01,-132.97,-82.32,571,1,0,0
28776,94992.30,543.16,542.49,0.94,-0.12,-0.07,22.13,-3.07,-30.04,-120.72,-81.87,571,1,0,0
28810,94995.49,542.88,542.50,0.96,-0.11,-0.06,10.00,-1.79,-30.66,-119.79,-82.52,571,1,0,0
28844,94986.71,543.03,542.50,0.90,-0.12,-0.03,19.67,-2.08,-32.15,-101.88,-82.09,571,1,0,0
28877,94998.66,542.61,542.50,0.86,-0.16,-0.05,12.90,-3.22,-34.58,-106.45,-79.23,571,1,0,0
28915,94992.67,543.13,542.50,0.83,-0.09,-0.08,-10.71,-2.96,-33.65,-131.73,-82.14,571,1,0,0
28949,94984.27,543.62,542.50,0.83,-0.10,-0.09,-3.07,-3.14,-34.44,-131.21,-81.15,571,1,0,0
28983,94999.03,542.64,542.50,0.93,-0.12,-0.10,-14.09,-2.11,-31.62,-128.40,-80.46,571,1,0,0
29017,94993.06,543.10,542.51,1.00,-0.08,-0.06,-51.86,0.50,-27.56,-127.25,-84.44,571,1,0,0
29050,94987.46,543.59,542.51,0.97,-0.06,-0.09,-24.05,4.52,-23.16,-145.82,-83.66,571,1,0,0
29088,94992.67,543.06,542.51,0.97,-0.02,-0.12,-20.94,6.94,-17.88,-170.09,-82.67,571,1,0,0
29122,94986.71,543.66,542.51,1.01,0.03,-0.11,-30.73,8.80,-11.25,166.61,-83.32,571,1,0,0
29156,94993.81,543.03,542.52,1.05,0.08,-0.08,-33.04,10.77,-3.18,135.10,-83.88,571,1,0,0
29190,94993.43,543.06,542.52,1.08,0.13,-0.10,-36.11,14.47,0.67,129.29,-81.38,571,1,0,0
29222,94992.30,543.16,542.52,1.13,0.16,-0.09,-47.65,15.35,9.32,119.15,-81.04,571,1,0,0
29256,94985.02,542.82,542.52,1.15,0.23,-0.06,-48.42,16.78,17.91,103.75,-78.48,571,1,0,0
29294,94981.10,544.15,542.53,1.15,0.29,-0.05,-51.07,15.72,24.19,100.48,-75.38,571,1,0,0
29328,94998.28,542.64,542.53,1.18,0.31,-0.06,-51.77,14.95,31.39,101.65,-75.10,571,1,0,0
29362,94993.81,542.79,542.53,1.12,0.35,-0.04,-46.59,13.18,37.82,96.75,-72.32,571,1,0,0
29395,94993.81,543.00,542.53,1.11,0.40,-0.09,-53.49,9.97,42.81,102.80,-69.82,571,1,0,0
29429,94987.83,543.59,542.53,1.06,0.37,-0.06,-34.46,5.89,45.88,99.16,-70.60,571,1,0,0
29462,94995.11,542.92,542.53,1.01,0.33,-0.12,-27.05,2.34,47.91,110.25,-70.74,571,1,0,0
29500,94985.75,543.99,542.54,0.99,0.28,-0.14,-40.91,-2.04,49.46,116.05,-72.48,571,1,0,0
29534,94997.30,543.06,542.54,0.93,0.28,-0.10,-31.11,-5.97,47.74,109.15,-72.13,571,1,0,0
29568,94997.68,542.69,542.54,0.91,0.24,-0.09,-25.83,-8.63,43.59,110.44,-74.04,571,1,0,0
29601,94986.47,543.67,542.54,0.90,0.18,-0.11,-28.12,-9.92,41.03,121.97,-76.95,571,1,0,0
29635,94989.27,543.43,542.55,0.92,0.15,-0.09,-24.19,-11.24,38.02,121.45,-79.23,571,1,0,0
29669,94986.47,543.67,542.55,0.90,0.13,-0.12,-22.79,-10.16,34.60,133.19,-78.65,571,1,0,0
29706,94986.47,543.67,542.55,0.88,0.12,-0.12,-16.98,-10.54,30.36,136.60,-79.21,571,1,0,0
29740,94986.85,543.64,542.56,0.91,0.08,-0.10,-11.62,-9.16,25.79,139.87,-81.87,571,1,0,0
29773,94987.22,543.61,542.56,0.88,0.10,-0.11,-18.60,-7.42,22.41,137.77,-80.08,571,1,0,0
29807,94987.22,543.61,542.57,0.87,0.10,-0.11,-5.78,-7.06,16.82,137.44,-79.91,571,1,0,0
29841,94996.35,543.55,542.57,0.89,0.07,-0.13,1.57,-5.63,11.22,150.65,-80.57,571,1,0,0
29878,94987.57,543.58,542.57,0.89,0.04,-0.15,3.52,-4.36,5.71,165.51,-79.86,571,1,0,0
29912,94991.50,543.24,542.57,0.89,0.07,-0.14,-4.14,-3.05,1.84,153.81,-80.04,571,1,0,0
29945,94995.63,542.87,542.58,0.92,0.06,-0.10,-0.50,-2.36,-2.95,147.24,-82.94,571,1,0,0
29988,94990.02,542.74,542.58,0.91,0.03,-0.11,8.11,1.01,-7.19,166.32,-83.23,571,1,0,0
30021,94990.02,543.37,542.58,0.92,-0.01,-0.11,-3.49,2.48,-8.24,-177.21,-82.89,571,1,0,0
30055,94996.35,542.81,542.58,0.87,-0.03,-0.10,8.11,5.00,-7.38,-164.78,-83.51,571,1,0,0
30102,94996.35,542.81,542.58,0.80,-0.02,-0.07,4.57,5.25,-4.16,-166.78,-84.89,571,1,0,0
30135,94995.97,542.84,542.58,0.78,-0.08,-0.06,24.77,3.96,-1.95,-127.44,-82.33,571,1,0,0
30169,94985.14,543.79,542.59,0.68,-0.04,-0.13,31.20,5.84,2.89,-162.65,-78.36,571,1,0,0
30202,94995.97,542.84,542.59,0.77,-0.02,-0.08,20.56,1.09,3.88,-164.96,-83.81,571,1,0,0
30236,94990.75,543.30,542.59,0.84,-0.03,-0.08,19.45,1.12,5.42,-160.79,-84.26,571,1,0,0
30270,94987.57,543.58,542.59,0.85,-0.01,-0.13,20.09,1.27,4.23,-176.83,-81.45,571,1,0,0
30307,94995.63,542.87,542.59,0.94,-0.08,-0.02,2.89,-3.00,1.72,-106.19,-84.99,571,1,0,0
30341,94999.53,542.53,542.59,0.86,-0.10,-0.07,-20.71,1.16,2.42,-123.92,-81.82,571,1,0,0
30374,94996.35,542.81,542.59,0.85,-0.03,-0.11,-18.64,5.33,-0.60,-163.29,-82.57,571,1,0,0
30408,94991.12,542.78,542.59,0.81,-0.14,-0.08,-2.93,2.76,-4.30,-119.15,-79.04,571,1,0,0
30442,94991.50,542.60,542.59,0.88,-0.14,-0.13,-22.10,8.04,-2.72,-131.98,-77.61,571,1,0,0
30476,94991.88,543.24,542.60,1.00,-0.10,-0.10,-17.04,11.37,-3.56,-135.56,-81.89,571,1,0,0
30514,95000.28,542.46,542.60,1.06,-0.13,-0.06,-8.07,14.74,-3.46,-115.56,-82.07,571,1,0,0
30546,94996.72,542.56,542.60,1.10,-0.09,-0.10,-12.47,18.99,-3.95,-139.29,-83.15,571,1,0,0
30580,94999.91,542.53,542.60,1.16,-0.06,-0.10,0.38,21.39,-5.26,-150.25,-84.30,571,1,0,0
30614,94999.53,542.53,542.60,1.04,-0.06,-0.12,15.88,21.29,-9.20,-151.83,-82.77,571,1,0,0
30648,95005.51,542.01,542.59,1.19,-0.08,-0.02,3.52,18.67,-6.15,-101.03,-85.90,571,1,0,0
30686,95002.71,542.28,542.59,1.17,-0.04,0.01,2.07,18.97,-4.10,-78.77,-88.10,571,1,0,0
30720,95002.33,542.25,542.59,1.16,-0.04,-0.01,3.41,22.96,-2.70,-97.34,-87.93,571,1,0,0
30752,95008.32,541.76,542.59,1.21,0.01,-0.05,-1.69,21.61,0.73,169.21,-87.72,571,1,0,0
30786,95008.32,541.76,542.59,1.15,0.04,-0.04,10.47,20.58,1.41,132.06,-87.35,571,1,0,0
30820,95002.33,542.28,542.58,1.18,0.03,-0.05,-2.48,19.39,3.17,147.58,-87.32,571,1,0,0
30854,95002.33,542.28,542.58,1.26,0.02,0.03,-5.61,17.43,3.77,36.59,-88.18,571,1,0,0
30891,95002.33,542.28,542.58,1.26,-0.02,-0.03,-7.59,16.19,3.86,-146.12,-88.25,571,1,0,0
30924,95002.71,542.25,542.58,1.24,-0.04,-0.02,-1.59,11.93,1.58,-111.43,-87.82,571,1,0,0
30958,95002.71,542.25,542.58,1.24,-0.06,-0.04,-3.36,7.51,2.30,-121.70,-86.51,571,1,0,0
30992,95002.71,542.25,542.58,1.17,-0.09,-0.06,-12.86,2.33,0.79,-124.07,-84.85,571,1,0,0
31025,95004.39,542.10,542.58,1.16,-0.05,0.03,-13.95,-1.08,-1.11,-58.76,-87.04,571,1,0,0
31058,95004.39,542.10,542.58,1.08,-0.02,-0.03,10.77,-4.17,-5.78,-142.66,-88.15,571,1,0,0
31096,95004.39,542.10,542.57,1.08,-0.04,0.03,-7.08,-6.07,-7.29,-56.09,-87.19,571,1,0,0
31130,95002.33,542.28,542.57,1.06,-0.03,-0.00,-5.29,-6.48,-8.66,-99.90,-88.55,571,1,0,0
31164,95007.57,542.56,542.57,1.10,-0.04,0.04,-5.84,-5.51,-8.81,-48.71,-86.96,571,1,0,0
31197,95001.96,542.84,542.57,1.06,-0.03,-0.02,-13.43,-3.11,-9.34,-117.71,-88.22,571,1,0,0
31230,95001.24,542.38,542.57,1.09,-0.01,0.00,-14.98,-1.06,-9.20,-88.88,-89.35,571,1,0,0
31264,94998.78,542.60,542.57,1.11,-0.03,0.03,-10.13,1.82,-7.66,-37.32,-87.74,571,1,0,0
31302,94998.78,542.01,542.57,1.00,0.02,-0.04,-8.45,3.97,-5.47,160.36,-87.32,571,1,0,0
31335,95002.71,542.28,542.57,1.08,0.02,0.01,-10.25,3.60,-3.29,70.47,-88.73,571,1,0,0
31369,94996.35,542.81,542.57,1.01,0.04,-0.05,0.89,5.34,-1.18,142.00,-86.40,571,1,0,0
31403,95001.96,542.32,542.57,1.05,0.02,0.00,-0.57,3.68,0.61,77.74,-88.75,571,1,0,0
31435,94997.82,542.68,542.57,0.99,0.02,0.00,2.22,4.14,2.78,87.14,-88.60,571,1,0,0
31469,95002.71,542.25,542.57,0.97,0.05,-0.01,-4.86,3.23,4.39,103.00,-86.93,571,1,0,0
31506,94997.47,542.71,542.57,1.06,0.03,0.07,-4.43,3.19,5.70,21.40,-86.20,571,1,0,0
31540,94999.16,542.56,542.57,0.97,0.04,0.00,2.17,3.55,6.01,87.14,-87.40,571,1,0,0
31574,94996.72,542.78,542.57,0.99,0.01,0.01,-0.20,2.62,4.96,52.77,-89.12,571,1,0,0
31606,95004.04,542.13,542.57,1.00,-0.01,0.03,-3.57,2.36,4.98,-17.67,-88.34,571,1,0,0
31640,95003.08,542.22,542.57,0.97,0.01,-0.01,-2.66,1.22,4.24,140.20,-88.99,571,1,0,0
31674,95010.75,541.55,542.56,1.03,0.00,0.03,-6.26,0.86,3.67,0.00,-88.09,571,1,0,0
31711,95006.24,541.94,542.56,1.06,-0.02,0.02,-7.21,0.85,3.69,-41.19,-88.61,571,1,0,0
31745,95002.33,542.28,542.56,1.03,0.00,-0.01,-7.80,0.33,2.62,174.82,-89.25,571,1,0,0
31777,95005.51,542.01,542.56,1.03,-0.00,0.02,-13.54,0.57,2.10,-1.49,-88.96,571,1,0,0
31811,94999.53,542.53,542.56,1.07,0.02,0.04,-15.63,0.91,1.43,24.10,-87.83,571,1,0,0
31845,94999.53,541.79,542.56,1.01,0.03,0.01,-3.11,1.82,0.72,67.06,-87.95,571,1,0,0
31887,94999.53,542.56,542.56,1.02,0.02,0.01,3.49,2.60,0.97,58.55,-88.64,571,1,0,0
31924,95006.24,541.94,542.55,1.01,0.02,0.00,-0.79,3.31,2.43,83.49,-89.03,571,1,0,0
31958,95006.61,541.91,542.55,1.03,-0.00,0.01,2.01,3.51,3.14,-10.71,-89.49,571,1,0,0
31991,95000.28,542.46,542.55,1.00,-0.02,-0.01,2.46,4.26,4.59,-107.83,-88.77,571,1,0,0
32033,95000.28,542.46,542.55,0.88,0.06,-0.01,-15.01,-0.30,-2.01,102.90,-86.17,571,1,0,0
32067,95003.08,542.22,542.55,0.95,0.02,-0.06,-3.86,-1.37,-1.66,161.06,-86.37,571,1,0,0
32101,95003.81,542.15,542.55,1.12,-0.04,0.01,2.71,1.46,1.26,-77.59,-87.97,571,1,0,0
32138,94999.91,542.46,542.55,1.01,0.01,0.01,-2.99,3.41,-1.35,31.68,-89.24,571,1,0,0
32172,95005.89,541.91,542.55,1.00,-0.00,0.02,-8.83,3.75,-1.59,-0.88,-89.10,571,1,0,0
32204,95005.51,542.01,542.54,1.00,-0.01,0.02,-9.96,3.11,-2.94,-14.71,-88.85,571,1,0,0
32238,95000.63,542.44,542.54,0.99,-0.01,0.01,-9.90,1.54,-2.98,-37.88,-89.20,571,1,0,0
32272,95009.41,541.66,542.54,1.02,0.01,0.02,-8.74,0.56,-3.58,14.62,-88.70,571,1,0,0
32305,95002.71,542.25,542.54,1.01,0.02,0.02,-11.20,1.13,-4.59,46.18,-88.10,571,1,0,0
32343,95003.08,542.22,542.54,1.01,0.03,0.01,-12.70,1.30,-4.13,71.73,-88.42,571,1,0,0
32376,95006.61,541.91,542.54,1.00,0.03,0.01,-11.80,0.60,-3.56,71.82,-88.00,571,1,0,0
32409,95006.61,541.91,542.53,1.01,0.03,-0.01,-4.92,-0.70,-2.25,111.73,-88.17,571,1,0,0
32443,95003.43,542.19,542.53,1.02,0.03,-0.01,-1.03,-1.46,-1.56,101.24,-88.04,571,1,0,0
32477,95004.53,542.09,542.53,1.02,0.02,-0.01,2.35,-1.20,-1.53,109.37,-88.93,571,1,0,0
32510,95008.69,541.97,542.53,1.00,0.03,-0.01,0.95,-0.34,-1.79,114.22,-88.03,571,1,0,0
32547,95008.32,541.76,542.53,1.04,0.06,-0.01,-7.59,1.30,-2.63,99.17,-86.62,571,1,0,0
32581,95006.61,541.91,542.52,1.02,0.08,-0.01,-4.86,2.08,-1.57,100.09,-85.63,571,1,0,0
32614,95009.78,541.63,542.52,1.00,0.08,-0.00,-3.90,2.23,1.42,92.36,-85.58,571,1,0,0
32648,95006.99,541.88,542.52,1.00,0.04,-0.01,-1.66,2.29,2.72,98.72,-87.89,571,1,0,0
32681,95003.43,542.25,542.52,1.01,0.03,-0.01,-2.17,2.29,2.83,105.51,-88.29,571,1,0,0
32714,95006.99,542.15,542.52,1.01,0.01,-0.02,-7.05,2.93,1.46,145.83,-88.65,571,1,0,0
32751,95006.99,541.88,542.51,1.01,0.03,0.01,-8.10,3.13,-0.31,75.97,-88.46,571,1,0,0
32785,95007.33,541.85,542.51,1.01,0.06,0.03,-6.55,2.04,0.63,66.06,-86.35,571,1,0,0
32818,95006.24,541.94,542.51,1.00,0.03,0.01,-1.38,0.93,1.79,78.54,-87.97,571,1,0,0
32851,95009.41,541.91,542.51,1.01,0.02,-0.01,-2.29,0.38,1.31,109.78,-88.70,571,1,0,0
32884,95003.43,541.60,542.50,1.01,0.03,0.02,-3.89,0.15,0.72,62.15,-88.08,571,1,0,0
32917,95002.10,542.15,542.50,1.00,0.03,0.01,-4.16,-0.31,0.98,79.78,-88.11,571,1,0,0
32954,95007.71,541.81,542.50,1.01,0.03,0.00,-3.15,-0.43,0.87,88.19,-88.27,571,1,0,0
32988,95002.10,542.31,542.50,1.00,0.05,0.00,-5.33,-0.59,1.42,86.62,-87.41,571,1,0,0
33020,95002.45,542.27,542.50,1.01,0.05,0.01,-4.73,-1.04,1.87,78.81,-87.36,571,1,0,0
33054,95003.81,542.65,542.50,1.01,0.02,-0.01,-3.68,-1.50,1.53,109.81,-88.54,571,1,0,0
33087,95001.72,542.65,542.50,1.01,0.03,-0.02,-5.59,-1.07,1.00,124.88,-87.79,571,1,0,0
33121,95006.99,541.85,542.50,1.01,0.04,-0.01,-5.24,-0.80,0.95,102.74,-87.93,571,1,0,0
33158,94993.69,543.04,542.50,1.01,0.04,-0.01,-3.57,-1.24,0.74,104.42,-87.46,571,1,0,0
33191,95001.00,542.40,542.50,1.01,0.04,-0.02,-5.36,-0.75,1.27,119.41,-87.12,571,1,0,0
33225,94999.30,541.85,542.50,1.01,0.03,-0.02,-4.50,-0.92,1.19,121.57,-87.73,571,1,0,0
33259,94999.64,542.52,542.50,1.01,0.04,-0.02,-4.29,-0.84,1.13,120.63,-87.64,571,1,0,0
33293,94998.58,542.61,542.50,1.01,0.04,-0.03,-4.45,-0.48,1.37,131.69,-87.30,571,1,0,0
33327,95000.63,542.44,542.50,1.01,0.04,-0.02,-3.98,-0.46,1.21,119.87,-87.42,571,1,0,0
33363,94999.30,542.58,542.50,1.01,0.03,-0.03,-4.75,-0.43,1.52,127.35,-87.67,571,1,0,0
33397,95006.61,541.91,542.50,1.01,0.03,-0.01,-5.65,-0.70,1.01,103.84,-88.15,571,1,0,0
33431,94998.58,542.61,542.50,1.01,0.04,-0.03,-5.80,-1.23,0.85,127.94,-87.30,571,1,0,0
33465,95004.91,542.06,542.49,1.01,0.05,-0.02,-4.60,-1.24,1.79,113.28,-87.21,571,1,0,0
33499,95005.25,542.03,542.49,1.02,0.03,-0.04,-4.10,-1.37,1.59,143.45,-87.49,571,1,0,0
33537,95005.63,542.00,542.49,1.01,0.02,-0.04,-5.45,-0.81,0.74,146.68,-87.59,571,1,0,0
33570,94999.30,542.55,542.49,1.01,0.04,-0.03,-6.01,-0.51,0.72,123.07,-87.22,571,1,0,0
33604,95008.80,541.72,542.49,1.01,0.05,-0.03,-4.01,-0.98,1.55,121.73,-86.77,571,1,0,0
33637,95004.53,542.09,542.49,1.01,0.03,-0.05,-5.43,-0.86,1.97,146.46,-86.91,571,1,0,0
33671,94999.30,541.78,542.48,1.01,0.03,-0.04,-4.39,-0.91,1.44,142.87,-87.06,571,1,0,0
33704,94999.64,542.55,542.48,1.01,0.04,-0.03,-3.65,-0.93,1.18,123.33,-87.06,571,1,0,0
33742,95005.25,542.03,542.48,1.00,0.04,-0.04,-5.54,-1.14,1.19,137.23,-86.96,571,1,0,0
33785,94998.92,542.03,542.48,1.01,0.03,-0.06,-2.76,-0.63,1.30,154.63,-86.44,571,1,0,0
33818,95005.25,542.00,542.48,1.01,0.03,-0.04,-4.65,-0.38,0.99,145.06,-87.05,571,1,0,0
33852,94999.64,542.52,542.48,1.01,0.03,-0.05,-5.00,-0.40,0.92,149.74,-86.45,571,1,0,0
33886,95001.38,542.37,542.48,1.00,0.04,-0.05,-4.80,-0.15,1.02,136.97,-86.27,571,1,0,0
33920,95005.25,542.03,542.48,1.01,0.04,-0.05,-4.94,-0.18,1.46,145.96,-86.30,571,1,0,0
33967,95008.42,541.75,542.47,1.01,0.03,-0.05,-5.13,0.82,1.27,146.87,-86.82,571,1,0,0
34000,95008.80,541.72,542.47,1.01,0.03,-0.04,-5.09,0.21,1.07,142.06,-87.05,571,1,0,0
34034,95006.38,541.93,542.47,1.01,0.03,-0.05,-3.49,-0.37,0.57,150.89,-86.68,571,1,0,0
34068,95003.58,542.18,542.47,1.01,0.05,-0.05,-6.38,-0.21,0.82,137.06,-85.90,571,1,0,0
34102,95006.38,542.91,542.47,1.00,0.05,-0.05,-4.20,0.47,1.40,138.86,-86.04,571,1,0,0
34135,95002.45,542.24,542.47,1.01,0.03,-0.07,-5.13,1.13,1.27,158.71,-85.90,571,1,0,0
34172,95005.63,542.00,542.47,1.01,0.04,-0.07,-5.69,2.25,0.77,152.05,-85.69,571,1,0,0
34206,95004.91,542.06,542.47,1.01,0.05,-0.05,-4.41,2.62,1.48,135.01,-85.59,571,1,0,0
34240,95004.53,541.78,542.46,1.01,0.03,-0.05,-4.17,2.46,1.86,151.24,-86.78,571,1,0,0
34274,95002.45,542.27,542.46,1.01,0.02,-0.05,-4.71,2.40,0.87,157.67,-86.74,571,1,0,0
34307,95005.25,542.03,542.46,1.01,0.05,-0.05,-4.37,2.01,0.92,132.92,-85.98,571,1,0,0
34340,95002.45,542.27,542.46,1.01,0.04,-0.05,-4.03,1.57,1.11,143.65,-86.28,571,1,0,0
34378,95002.83,542.27,542.46,1.01,0.04,-0.06,-5.39,1.42,1.07,148.76,-85.76,571,1,0,0
34412,95005.25,542.03,542.46,1.01,0.03,-0.07,-5.61,1.77,1.11,159.52,-85.73,571,1,0,0
34445,95004.91,542.06,542.46,1.01,0.03,-0.06,-6.55,1.35,1.05,150.55,-86.19,571,1,0,0
34479,95002.45,542.27,542.46,1.00,0.04,-0.07,-5.12,1.08,0.92,150.85,-85.75,571,1,0,0
34512,94994.78,542.95,542.46,1.01,0.03,-0.07,-5.08,1.55,1.05,155.63,-85.96,571,1,0,0
34546,95000.39,542.45,542.46,1.00,0.05,-0.06,-1.44,2.59,0.82,138.55,-85.68,571,1,0,0
34583,95011.61,541.47,542.46,1.00,0.05,-0.05,-7.04,2.84,1.81,138.90,-85.94,571,1,0,0
34617,95006.72,541.90,542.45,1.01,0.03,-0.04,-6.36,2.09,1.49,139.14,-87.16,571,1,0,0
34651,95008.05,541.78,542.45,1.01,0.03,-0.06,-5.97,1.14,0.78,152.74,-86.48,571,1,0,0
34684,95000.39,542.45,542.45,1.01,0.04,-0.06,-5.69,1.64,0.99,145.15,-85.69,571,1,0,0
34718,95002.45,542.31,542.45,1.01,0.05,-0.06,-5.31,2.26,1.59,142.20,-85.62,571,1,0,0
34751,95004.91,542.03,542.45,1.01,0.03,-0.05,-4.84,2.09,1.50,148.39,-86.51,571,1,0,0
34789,95003.92,542.14,542.45,1.01,0.03,-0.05,-4.39,1.75,1.17,152.05,-86.97,571,1,0,0
34823,95006.00,541.96,542.45,1.01,0.04,-0.06,-4.60,1.58,1.01,147.96,-86.13,571,1,0,0
34856,94999.64,542.03,542.44,1.01,0.04,-0.06,-4.50,1.83,1.43,145.96,-85.80,571,1,0,0
34889,95005.63,541.93,542.44,1.01,0.03,-0.05,-4.59,2.23,1.56,146.63,-86.48,571,1,0,0
34923,95003.92,542.14,542.44,1.01,0.03,-0.05,-4.58,2.09,1.04,148.48,-86.42,571,1,0,0
34957,94999.64,542.52,542.44,1.01,0.03,-0.06,-4.81,1.81,1.00,150.69,-86.27,571,1,0,0
34995,94993.69,542.21,542.44,1.00,0.04,-0.05,-4.67,1.74,1.21,143.77,-86.19,571,1,0,0
35027,95002.45,542.27,542.44,1.00,0.04,-0.05,-4.69,2.01,1.53,145.56,-86.25,571,1,0,0
35061,95004.18,542.12,542.44,1.02,0.03,-0.05,-4.88,2.05,1.24,150.62,-86.65,571,1,0,0
35095,95002.45,542.27,542.44,1.01,0.03,-0.05,-4.82,1.78,1.09,147.63,-86.64,571,1,0,0
35129,94999.64,542.52,542.44,1.01,0.04,-0.06,-4.54,1.71,0.89,143.02,-86.08,571,1,0,0
35163,95004.91,542.06,542.44,1.00,0.03,-0.06,-4.68,1.94,1.35,149.98,-86.19,571,1,0,0
35200,95002.10,542.31,542.44,1.01,0.04,-0.06,-4.90,1.98,1.27,146.03,-86.21,571,1,0,0
35233,95002.45,542.27,542.44,1.01,0.03,-0.06,-4.68,1.75,1.02,149.44,-86.21,571,1,0,0
35267,94994.03,543.01,542.44,1.01,0.03,-0.06,-4.69,1.73,1.05,152.50,-86.26,571,1,0,0
35301,95001.72,542.34,542.44,1.00,0.04,-0.06,-4.69,1.89,1.24,145.74,-86.19,571,1,0,0
35334,94991.24,542.03,542.44,1.01,0.03,-0.06,-4.56,2.13,1.30,150.61,-86.26,571,1,0,0
35367,95002.10,543.01,542.44,1.02,0.04,-0.05,-4.82,2.05,1.20,141.48,-86.30,571,1,0,0
35405,95003.21,542.21,542.44,1.01,0.03,-0.06,-4.71,1.86,1.32,148.83,-86.23,571,1,0,0
35439,95002.45,542.27,542.44,1.01,0.04,-0.05,-4.62,1.88,1.25,146.98,-86.34,571,1,0,0
35472,95005.63,542.00,542.44,1.01,0.04,-0.06,-4.83,2.05,1.33,148.71,-85.95,571,1,0,0
35506,95006.38,543.29,542.44,1.01,0.04,-0.06,-4.70,1.98,1.17,144.73,-86.12,571,1,0,0
35539,95000.77,542.42,542.44,1.01,0.03,-0.05,-4.67,1.85,1.35,143.97,-86.74,571,1,0,0
35573,94999.64,542.52,542.44,1.01,0.04,-0.06,-4.76,1.88,0.88,147.60,-86.24,571,1,0,0
35610,95005.63,543.01,542.44,1.01,0.04,-0.06,-4.70,1.96,1.18,143.71,-86.13,571,1,0,0
35644,94999.64,542.55,542.44,1.01,0.04,-0.06,-4.75,2.05,1.22,149.73,-85.98,571,1,0,0
35687,95001.38,542.37,542.44,1.01,0.04,-0.05,-4.64,1.71,1.07,146.80,-86.32,571,1,0,0
35720,94994.41,542.98,542.44,1.01,0.04,-0.06,-4.83,2.02,1.34,144.74,-85.86,571,1,0,0
35753,95002.10,542.31,542.44,1.01,0.04,-0.06,-4.78,1.87,1.07,146.20,-86.21,571,1,0,0
35787,94999.64,542.52,542.44,1.01,0.04,-0.05,-4.51,1.98,1.30,145.96,-86.35,571,1,0,0
35824,95005.63,542.00,542.44,1.01,0.03,-0.05,-4.76,1.75,1.11,146.94,-86.46,571,1,0,0
35868,95002.45,542.27,542.44,1.01,0.03,-0.05,-4.62,1.89,0.97,145.42,-86.59,571,1,0,0
35902,94994.78,542.45,542.44,1.02,0.04,-0.06,-4.84,1.98,1.18,146.38,-86.12,571,1,0,0
35935,94994.78,542.42,542.44,1.01,0.04,-0.06,-4.82,1.81,1.22,148.01,-86.21,571,1,0,0
35969,95006.38,541.93,542.44,1.01,0.04,-0.05,-4.71,1.96,1.08,147.10,-86.32,571,1,0,0
36002,95006.00,541.96,542.44,1.01,0.04,-0.05,-4.59,1.86,1.25,141.25,-86.39,571,1,0,0
36039,95006.38,542.18,542.44,1.01,0.03,-0.06,-4.72,1.96,1.34,153.27,-85.95,571,1,0,0
36073,94994.41,542.18,542.44,1.00,0.04,-0.05,-4.76,1.81,1.24,143.23,-86.49,571,1,0,0
36107,95003.58,542.21,542.43,1.01,0.03,-0.06,-4.68,1.86,1.11,150.00,-86.31,571,1,0,0
36141,95000.39,542.45,542.43,1.00,0.03,-0.05,-4.75,1.76,1.21,149.12,-86.45,571,1,0,0
36173,95003.21,542.21,542.43,1.00,0.04,-0.05,-4.73,1.88,1.11,143.01,-86.26,571,1,0,0
36207,95000.77,542.42,542.43,1.01,0.04,-0.06,-4.66,2.01,1.22,146.76,-85.98,571,1,0,0
36245,95006.00,541.90,542.43,1.01,0.04,-0.05,-4.82,1.72,1.24,142.91,-86.60,571,1,0,0
36278,95008.05,541.78,542.43,1.01,0.04,-0.06,-4.67,1.95,1.26,145.52,-86.14,571,1,0,0
36312,95002.45,542.27,542.43,1.01,0.03,-0.06,-4.76,1.79,1.30,149.29,-86.16,571,1,0,0
36345,95005.25,542.03,542.43,1.01,0.03,-0.06,-4.86,2.11,1.09,149.47,-86.16,571,1,0,0
36379,95000.39,542.45,542.43,1.01,0.03,-0.06,-4.62,1.95,1.37,148.32,-86.26,571,1,0,0
36413,95000.02,542.49,542.43,1.00,0.03,-0.05,-4.68,1.75,1.04,147.32,-86.45,571,1,0,0
36450,95006.38,541.93,542.43,1.01,0.04,-0.05,-4.78,2.03,1.24,146.80,-86.36,571,1,0,0
36484,94994.41,542.98,542.43,1.01,0.04,-0.06,-4.70,1.81,1.17,144.92,-86.09,571,1,0,0
36517,95006.00,541.96,542.43,1.00,0.04,-0.05,-4.82,1.85,1.17,145.77,-86.37,571,1,0,0
36550,94994.78,542.95,542.43,1.01,0.03,-0.06,-4.64,1.84,1.14,155.42,-86.07,571,1,0,0
36584,95005.25,542.45,542.43,1.01,0.04,-0.06,-4.78,1.80,1.21,145.47,-86.13,571,1,0,0
36618,94999.64,542.42,542.43,1.02,0.03,-0.05,-4.57,1.88,1.19,147.98,-86.45,571,1,0,0
36655,95004.30,542.11,542.43,1.01,0.03,-0.06,-4.69,1.93,1.30,150.42,-86.15,571,1,0,0
36688,94995.52,542.88,542.43,1.01,0.03,-0.06,-4.63,1.99,1.07,149.46,-86.35,571,1,0,0
36722,94994.03,541.68,542.43,1.01,0.04,-0.05,-4.75,1.86,1.26,142.45,-86.08,571,1,0,0
36756,95005.63,541.96,542.42,1.00,0.04,-0.05,-4.69,1.83,1.27,147.03,-86.26,571,1,0,0
36789,94999.64,542.52,542.42,1.01,0.04,-0.06,-4.60,1.84,1.32,146.15,-86.10,571,1,0,0
36823,94993.69,543.04,542.43,1.01,0.03,-0.06,-4.64,1.82,1.16,152.98,-86.20,571,1,0,0
36860,95000.02,542.14,542.43,1.01,0.03,-0.05,-4.78,1.89,1.24,146.84,-86.60,571,1,0,0
36893,95002.45,542.21,542.43,1.01,0.04,-0.06,-4.75,1.87,1.24,145.74,-86.22,571,1,0,0
36927,95000.02,542.49,542.43,1.01,0.04,-0.06,-4.73,1.94,1.25,147.74,-86.29,571,1,0,0
36961,94995.17,542.91,542.43,1.01,0.03,-0.05,-4.55,1.98,1.20,147.01,-86.49,571,1,0,0
36995,95000.39,542.45,542.43,1.01,0.04,-0.05,-4.78,1.98,1.29,144.62,-86.28,571,1,0,0
37027,95003.92,542.14,542.43,1.01,0.04,-0.06,-4.65,1.95,1.19,147.78,-85.93,571,1,0,0
37065,95006.38,541.93,542.42,1.01,0.03,-0.06,-4.58,1.89,1.39,151.34,-86.14,571,1,0,0
37098,95006.38,541.93,542.42,1.00,0.04,-0.05,-4.76,2.17,1.33,146.44,-86.33,571,1,0,0
37132,94994.03,543.01,542.42,1.01,0.03,-0.06,-4.78,1.64,1.24,151.24,-86.15,571,1,0,0
37166,95009.53,541.65,542.42,1.01,0.04,-0.05,-4.62,2.01,1.21,146.50,-86.37,571,1,0,0
37199,94996.27,542.82,542.42,1.01,0.03,-0.05,-4.75,1.98,1.27,148.67,-86.36,571,1,0,0
37236,95003.92,542.14,542.42,1.01,0.03,-0.06,-4.64,1.92,1.33,151.40,-86.18,571,1,0,0
37270,94994.41,542.98,542.42,1.01,0.03,-0.05,-4.62,1.75,1.22,146.32,-86.46,571,1,0,0
37304,95000.02,542.49,542.42,1.01,0.04,-0.06,-4.62,1.83,1.32,148.14,-86.13,571,1,0,0
37337,94995.52,542.88,542.43,1.01,0.04,-0.06,-4.64,2.08,1.34,149.05,-85.91,571,1,0,0
37370,95008.80,541.96,542.42,1.01,0.03,-0.06,-4.79,1.71,1.12,151.00,-86.40,571,1,0,0
37404,95008.42,542.00,542.42,1.01,0.03,-0.05,-4.65,1.85,1.17,144.14,-86.66,571,1,0,0
37441,95000.39,542.45,542.42,1.01,0.03,-0.06,-4.76,1.91,1.11,150.72,-86.12,571,1,0,0
37475,95008.80,541.72,542.42,1.01,0.04,-0.05,-4.76,1.91,1.37,139.27,-86.32,571,1,0,0
37509,95011.99,542.91,542.42,1.01,0.04,-0.06,-4.67,1.82,1.00,147.79,-86.12,571,1,0,0
37541,95003.58,542.24,542.42,1.00,0.03,-0.05,-4.66,1.79,1.08,147.30,-86.40,571,1,0,0
37584,95003.58,542.18,542.42,1.01,0.04,-0.06,-4.69,1.90,1.30,146.85,-86.23,571,1,0,0
37618,94999.64,542.52,542.42,1.01,0.04,-0.05,-4.66,1.72,1.37,145.66,-86.35,571,1,0,0
37655,94994.41,542.18,542.42,1.01,0.03,-0.06,-4.71,1.86,1.22,150.03,-86.29,571,1,0,0
37689,95003.21,542.24,542.42,1.00,0.04,-0.05,-4.83,1.88,1.22,146.08,-86.27,571,1,0,0
37723,95006.00,541.96,542.42,1.01,0.03,-0.06,-4.71,2.02,1.17,151.34,-86.14,571,1,0,0
37755,94995.52,542.88,542.42,1.01,0.03,-0.05,-4.81,1.95,1.37,148.15,-86.52,571,1,0,0
37798,94994.41,542.98,542.42,1.01,0.03,-0.05,-4.68,1.85,1.13,146.94,-86.47,571,1,0,0
37832,95003.21,542.21,542.42,1.01,0.03,-0.06,-4.83,1.75,1.11,156.94,-86.07,571,1,0,0
37870,95003.58,542.18,542.42,1.01,0.04,-0.06,-4.80,1.97,1.29,147.56,-86.26,571,1,0,0
37903,94995.52,542.88,542.42,1.00,0.03,-0.05,-4.66,2.03,1.16,149.09,-86.65,571,1,0,0
37937,95003.92,542.14,542.42,1.00,0.03,-0.06,-4.65,1.93,1.18,152.81,-86.07,571,1,0,0
37970,95006.38,541.93,542.42,1.00,0.04,-0.06,-4.75,1.92,1.32,145.46,-85.89,571,1,0,0
38003,94994.03,542.91,542.42,1.01,0.03,-0.05,-4.69,1.85,1.22,153.34,-86.54,571,1,0,0
38037,95005.05,541.68,542.42,1.00,0.04,-0.05,-4.77,1.94,1.30,143.79,-86.58,571,1,0,0
38074,95003.58,542.18,542.42,1.01,0.03,-0.05,-4.80,1.88,1.27,147.54,-86.41,571,1,0,0
38108,95003.58,542.18,542.42,1.01,0.04,-0.05,-4.62,1.88,1.38,146.32,-86.27,571,1,0,0
38141,95003.21,541.96,542.42,1.01,0.04,-0.06,-4.75,1.91,1.04,146.81,-86.00,571,1,0,0
38175,95006.00,542.39,542.42,1.00,0.04,-0.06,-4.75,2.07,1.10,148.56,-86.05,571,1,0,0
38208,95001.50,542.36,542.41,1.01,0.03,-0.06,-4.80,1.82,1.31,150.16,-86.22,571,1,0,0
38242,95003.58,542.18,542.41,1.01,0.04,-0.05,-4.62,1.86,1.37,144.23,-86.24,571,1,0,0
38279,95000.77,541.68,542.41,1.01,0.03,-0.06,-4.71,1.98,1.22,150.84,-86.19,571,1,0,0
38312,94994.78,542.00,542.41,1.01,0.03,-0.05,-4.72,1.98,1.40,147.54,-86.56,571,1,0,0
38346,95006.00,541.93,542.41,1.01,0.03,-0.06,-4.67,1.85,1.09,150.58,-86.29,571,1,0,0
38379,95003.92,542.14,542.41,1.01,0.03,-0.05,-4.76,1.83,1.24,146.26,-86.44,571,1,0,0
38413,95001.11,542.39,542.41,1.02,0.04,-0.06,-4.65,1.89,1.21,148.12,-86.23,571,1,0,0
38447,95001.11,542.39,542.41,1.02,0.04,-0.05,-4.79,1.82,1.33,146.32,-86.38,571,1,0,0
38483,95006.00,542.39,542.41,1.02,0.04,-0.05,-4.65,1.88,1.30,145.56,-86.30,571,1,0,0
38517,95011.99,541.44,542.40,1.01,0.04,-0.05,-4.57,2.04,1.13,144.71,-86.47,571,1,0,0
38550,95006.72,541.90,542.40,1.01,0.03,-0.05,-4.63,1.84,1.01,146.58,-86.59,571,1,0,0
38584,95009.53,541.65,542.40,1.01,0.04,-0.05,-4.62,1.80,1.25,144.06,-86.41,571,1,0,0
38618,95006.72,541.90,542.40,1.01,0.03,-0.06,-4.81,1.72,1.23,149.85,-86.26,571,1,0,0
38651,95006.72,541.90,542.40,1.00,0.04,-0.05,-4.68,1.90,1.17,142.60,-86.20,571,1,0,0
38688,94996.27,542.82,542.40,1.01,0.03,-0.06,-4.61,1.93,1.28,150.02,-86.06,571,1,0,0
38722,95002.83,542.24,542.40,1.01,0.03,-0.05,-4.72,1.73,1.10,150.12,-86.58,571,1,0,0
38755,94999.64,542.52,542.40,1.01,0.04,-0.06,-4.71,2.03,1.22,147.17,-85.86,571,1,0,0
38789,94994.03,543.01,542.40,1.01,0.03,-0.05,-4.66,1.75,1.05,147.49,-86.42,571,1,0,0
38822,95006.00,541.96,542.40,1.01,0.04,-0.05,-4.72,1.91,1.37,146.32,-86.42,571,1,0,0
38855,95004.30,541.86,542.40,1.01,0.03,-0.06,-4.63,1.81,1.25,151.17,-85.96,571,1,0,0
38893,95003.58,542.18,542.40,1.01,0.03,-0.06,-4.62,1.90,1.37,150.02,-86.37,571,1,0,0
38926,95003.21,542.21,542.39,1.01,0.03,-0.05,-4.66,1.87,1.09,146.57,-86.44,571,1,0,0
38960,95003.58,542.18,542.39,1.01,0.03,-0.06,-4.74,1.91,1.26,149.49,-86.31,571,1,0,0
38993,95002.83,542.24,542.39,1.01,0.03,-0.05,-4.62,1.92,1.38,150.12,-86.59,571,1,0,0
39026,95000.39,542.42,542.39,1.01,0.03,-0.06,-4.67,1.96,1.20,150.92,-85.94,571,1,0,0
39060,94995.17,542.95,542.40,1.01,0.04,-0.05,-4.76,1.86,1.30,145.18,-86.35,571,1,0,0
39097,95002.45,542.27,542.39,1.01,0.04,-0.06,-4.68,1.97,1.42,147.67,-86.24,571,1,0,0
39131,94994.03,543.01,542.40,1.01,0.04,-0.05,-4.84,1.98,1.20,143.79,-86.37,571,1,0,0
39164,95000.02,542.39,542.40,1.01,0.04,-0.06,-4.71,1.91,1.15,142.90,-86.09,571,1,0,0
39197,95000.39,542.42,542.40,1.02,0.03,-0.05,-4.77,1.85,1.37,150.04,-86.48,571,1,0,0
39231,95002.83,542.14,542.40,1.01,0.04,-0.06,-4.84,1.82,1.28,147.68,-85.82,571,1,0,0
39265,95005.39,542.01,542.39,1.01,0.04,-0.06,-4.70,1.90,1.19,147.78,-86.23,571,1,0,0
39302,95002.25,542.29,542.39,1.01,0.03,-0.05,-4.76,1.95,1.30,147.30,-86.41,571,1,0,0
39334,95003.92,541.90,542.39,1.01,0.04,-0.05,-4.78,1.89,1.14,146.38,-86.34,571,1,0,0
39368,95003.92,541.65,542.39,1.01,0.04,-0.06,-4.78,1.85,1.01,146.60,-86.00,571,1,0,0
39401,95007.10,541.80,542.39,1.02,0.03,-0.05,-4.75,1.91,1.10,147.54,-86.60,571,1,0,0
39435,95007.10,541.86,542.39,1.01,0.04,-0.06,-4.62,1.84,1.23,145.12,-86.00,571,1,0,0
39477,95003.58,542.18,542.39,1.01,0.04,-0.06,-4.61,2.01,1.13,147.04,-86.02,571,1,0,0
39526,95004.67,542.08,542.38,1.01,0.03,-0.05,-4.69,1.73,1.24,151.09,-86.55,571,1,0,0
39561,95007.10,541.86,542.38,1.01,0.04,-0.05,-4.56,2.10,1.26,143.41,-86.54,571,1,0,0
39597,94996.64,542.18,542.38,1.01,0.04,-0.05,-4.65,1.79,1.33,142.95,-86.60,571,1,0,0
39632,95001.50,542.36,542.38,1.01,0.03,-0.05,-4.66,1.88,1.08,148.49,-86.37,571,1,0,0
39668,95001.50,542.36,542.38,1.01,0.03,-0.06,-4.62,1.60,1.14,148.28,-86.29,571,1,0,0
39714,95007.48,541.83,542.38,1.01,0.03,-0.06,-4.83,1.82,0.95,150.52,-86.14,571,1,0,0
39753,95003.92,542.14,542.38,1.01,0.04,-0.05,-4.65,1.95,1.28,144.18,-86.51,571,1,0,0
39789,95006.00,541.96,542.38,1.01,0.04,-0.06,-4.65,1.67,1.26,146.26,-86.25,571,1,0,0
39826,95001.50,542.45,542.38,1.01,0.03,-0.05,-4.68,1.82,1.05,147.94,-86.34,571,1,0,0
39862,95007.10,541.86,542.38,1.01,0.04,-0.05,-4.75,1.95,1.36,146.32,-86.41,571,1,0,0
39898,95001.50,541.68,542.37,1.01,0.03,-0.05,-4.64,2.02,1.11,144.94,-86.65,571,1,0,0
39933,95003.92,542.14,542.37,1.01,0.03,-0.05,-4.69,1.80,1.20,147.75,-86.45,571,1,0,0
39973,95004.30,542.11,542.37,1.01,0.04,-0.05,-4.65,2.01,1.10,143.37,-86.51,571,1,0,0
40009,95003.92,542.14,542.37,1.01,0.04,-0.06,-4.62,1.79,1.11,146.44,-86.22,571,1,0,0
40045,95007.10,541.86,542.37,1.02,0.03,-0.06,-4.68,1.93,1.25,150.43,-86.39,571,1,0,0
40082,95002.45,542.27,542.37,1.01,0.04,-0.05,-4.65,1.90,1.20,140.17,-86.65,571,1,0,0
40118,94995.89,542.88,542.37,1.01,0.03,-0.05,-4.79,1.79,1.14,147.16,-86.61,571,1,0,0
40154,94996.64,542.78,542.37,1.01,0.04,-0.06,-4.68,1.86,1.40,145.22,-85.82,571,1,0,0
40194,95003.58,542.18,542.37,1.01,0.04,-0.06,-4.79,1.87,1.37,145.10,-86.05,571,1,0,0
40229,95000.77,542.11,542.37,1.01,0.03,-0.05,-4.52,2.01,1.25,148.01,-86.49,571,1,0,0
40265,95000.77,542.42,542.37,1.01,0.04,-0.05,-4.68,1.86,1.21,142.65,-86.47,571,1,0,0
40301,95010.66,541.56,542.37,1.00,0.03,-0.05,-4.71,1.90,1.21,147.34,-86.32,571,1,0,0
40338,94995.52,542.88,542.37,1.01,0.03,-0.06,-4.73,1.74,1.44,148.97,-86.35,571,1,0,0
40374,95002.83,542.24,542.37,1.01,0.04,-0.05,-4.60,1.88,1.07,142.88,-86.30,571,1,0,0
40414,95001.50,542.36,542.37,1.01,0.04,-0.06,-4.68,1.75,1.26,147.02,-86.25,571,1,0,0
40450,94996.27,541.83,542.37,1.01,0.04,-0.06,-4.65,2.00,1.22,149.57,-85.89,571,1,0,0
40485,95002.25,542.29,542.37,1.00,0.04,-0.05,-4.81,1.85,1.20,142.17,-86.38,571,1,0,0
40521,95003.58,542.26,542.37,1.00,0.04,-0.05,-4.62,1.84,1.17,143.35,-86.19,571,1,0,0
40557,95001.50,542.36,542.37,1.01,0.03,-0.05,-4.69,1.90,1.29,147.06,-86.44,571,1,0,0
40593,94994.78,542.95,542.37,1.01,0.04,-0.05,-4.79,1.88,1.21,146.32,-86.31,571,1,0,0
40633,95006.72,541.90,542.37,1.00,0.03,-0.06,-4.68,2.01,1.24,151.40,-86.16,571,1,0,0
40669,95005.05,542.21,542.37,1.01,0.03,-0.06,-4.77,1.91,1.30,152.72,-86.11,571,1,0,0
40706,95007.10,541.86,542.36,1.01,0.04,-0.06,-4.71,1.91,1.04,145.22,-86.21,571,1,0,0
40741,94995.89,542.36,542.36,1.00,0.04,-0.06,-4.70,1.91,1.14,147.78,-85.91,571,1,0,0
40777,94996.99,542.75,542.37,1.00,0.04,-0.05,-4.78,1.88,1.27,144.37,-86.25,571,1,0,0
40813,95002.25,542.29,542.37,1.00,0.03,-0.06,-4.58,2.12,1.30,148.65,-86.21,571,1,0,0
40853,95000.39,542.45,542.37,1.01,0.04,-0.05,-4.74,1.73,1.21,143.82,-86.49,571,1,0,0
40889,94995.89,542.85,542.37,1.01,0.04,-0.06,-4.74,1.95,1.13,148.79,-85.80,571,1,0,0
40925,94987.48,543.59,542.37,1.01,0.04,-0.06,-4.62,1.70,1.17,146.32,-86.17,571,1,0,0
40961,95001.87,542.32,542.37,1.01,0.04,-0.06,-4.66,1.91,1.24,147.79,-86.13,571,1,0,0
40997,95007.10,541.86,542.37,1.01,0.04,-0.05,-4.67,1.79,1.25,144.66,-86.57,571,1,0,0
41033,95001.50,542.32,542.37,1.01,0.04,-0.06,-4.77,1.98,1.14,145.14,-86.11,571,1,0,0
41073,95002.25,542.29,542.37,1.01,0.03,-0.05,-4.81,1.82,1.27,144.98,-86.57,571,1,0,0
41109,95002.60,542.26,542.37,1.01,0.03,-0.06,-4.63,1.79,1.29,149.12,-86.32,571,1,0,0
41145,95001.87,542.32,542.37,1.02,0.04,-0.05,-4.81,1.85,1.09,141.97,-86.24,571,1,0,0
41181,94995.89,542.75,542.37,1.01,0.04,-0.06,-6.16,2.61,1.30,149.94,-85.77,571,1,0,0
41217,95005.05,542.05,542.37,1.01,0.04,-0.04,-3.08,2.46,1.27,136.65,-86.57,571,1,0,0
41252,95007.85,541.83,542.37,1.01,0.10,-0.02,1.40,0.15,3.37,101.74,-84.08,571,1,0,0
41292,94996.99,542.78,542.37,0.99,0.06,-0.08,-3.44,-0.08,0.47,146.28,-84.26,571,1,0,0
41328,95002.60,542.26,542.37,1.01,0.02,-0.08,-7.21,2.10,0.22,164.25,-85.33,571,1,0,0
41364,94990.66,543.31,542.37,1.00,0.06,-0.05,-5.61,2.84,1.34,127.75,-85.79,571,1,0,0
41400,94998.69,542.60,542.37,1.01,0.03,-0.04,-4.81,2.64,1.99,142.28,-87.06,571,1,0,0
41437,94996.27,542.82,542.37,1.01,0.03,-0.05,-4.26,1.43,0.72,151.64,-86.86,571,1,0,0
41482,95002.60,542.26,542.37,1.03,0.03,-0.06,1.24,3.85,2.33,156.76,-86.35,571,1,0,0
41522,94993.83,543.00,542.38,1.02,-0.00,-0.14,-9.69,2.80,2.45,-179.50,-82.33,571,1,0,0
41558,94996.27,542.82,542.38,1.00,0.01,-0.02,-4.66,3.20,0.61,163.75,-88.96,571,1,0,0
41593,95007.85,542.26,542.38,1.02,0.04,-0.06,-7.03,1.40,-0.94,149.37,-85.77,571,1,0,0
41629,95002.60,542.26,542.38,1.02,0.06,-0.08,-1.74,2.71,0.93,145.20,-84.58,571,1,0,0
41665,94994.18,542.75,542.38,1.10,0.02,-0.06,2.94,4.59,1.11,162.20,-86.68,571,1,0,0
41705,95005.05,542.05,542.38,1.13,0.03,-0.06,-9.15,10.57,5.83,155.33,-86.48,571,1,0,0
41751,94994.18,543.00,542.38,1.08,0.01,-0.08,-1.97,12.68,9.67,171.96,-85.76,571,1,0,0
41787,94993.83,542.26,542.38,1.15,0.00,-0.07,-2.66,15.77,13.11,178.12,-86.32,571,1,0,0
41824,94996.64,542.78,542.38,1.14,0.00,-0.04,11.92,19.64,13.64,177.57,-87.99,571,1,0,0
41860,95002.25,542.29,542.38,1.15,-0.00,-0.03,11.20,23.94,13.34,-171.18,-88.74,571,1,0,0
41895,95002.94,542.23,542.38,1.09,-0.04,-0.02,4.46,24.88,13.70,-108.91,-87.50,571,1,0,0
41935,94994.91,542.94,542.38,1.03,-0.08,0.00,10.22,26.44,11.44,-87.99,-85.76,571,1,0,0
41971,95002.25,542.29,542.38,1.14,0.02,0.04,32.45,29.98,8.27,20.45,-87.69,571,1,0,0
42007,95003.32,541.71,542.38,1.01,-0.02,0.08,-7.14,29.98,3.97,-13.09,-85.35,571,1,0,0
42044,94997.71,542.69,542.38,0.99,0.05,0.09,2.72,31.44,-0.44,26.45,-83.96,571,1,0,0
42080,94996.64,542.69,542.38,0.96,0.00,0.08,7.03,31.89,-6.58,2.22,-85.13,571,1,0,0
42116,94997.71,542.69,542.38,0.96,-0.04,0.13,0.22,30.84,-8.61,-15.91,-81.72,571,1,0,0
42156,94995.66,542.87,542.38,1.01,0.04,0.19,-10.94,30.46,-6.19,10.75,-78.99,571,1,0,0
42191,95002.25,542.29,542.38,1.07,0.03,0.17,10.44,31.04,-3.74,8.64,-80.82,571,1,0,0
42227,94997.33,542.66,542.38,1.08,-0.02,0.17,-1.57,31.52,1.44,-8.08,-81.16,571,1,0,0
42263,94995.28,542.90,542.39,0.98,-0.01,0.19,2.68,32.96,7.84,-1.66,-79.32,571,1,0,0
42299,94997.33,542.66,542.39,0.97,0.03,0.17,13.28,36.12,13.01,8.94,-79.81,571,1,0,0
42335,94995.66,542.87,542.39,1.00,0.01,0.22,2.52,34.25,17.84,3.56,-77.57,571,1,0,0
42375,95004.07,542.13,542.39,0.96,-0.02,0.23,4.54,30.48,22.22,-3.78,-76.28,571,1,0,0
42411,94991.52,543.23,542.39,0.89,-0.02,0.26,17.55,25.85,25.25,-5.11,-73.77,571,1,0,0
42446,94996.38,542.87,542.39,0.90,-0.01,0.18,22.27,21.90,27.42,-2.29,-78.90,571,1,0,0
42482,94993.57,543.05,542.39,0.89,-0.07,0.28,17.34,16.52,29.27,-13.64,-72.07,571,1,0,0
42518,94999.18,542.99,542.40,0.89,-0.06,0.31,17.61,14.47,34.60,-10.67,-70.32,571,1,0,0
42555,94997.50,542.71,542.40,0.94,-0.06,0.29,14.31,13.06,38.24,-12.21,-72.62,571,1,0,0
42595,94997.85,542.68,542.40,0.91,-0.09,0.30,11.92,10.42,38.85,-16.87,-71.25,571,1,0,0
42631,94995.39,542.89,542.40,0.89,-0.09,0.26,1.39,9.02,41.30,-19.01,-72.58,571,1,0,0
42667,94994.32,542.99,542.40,0.93,-0.14,0.30,2.87,6.98,43.31,-24.88,-70.22,571,1,0,0
42702,94997.85,542.68,542.40,0.94,-0.15,0.31,9.12,5.83,46.49,-26.38,-70.12,571,1,0,0
42738,94993.95,542.92,542.40,0.92,-0.18,0.25,7.58,5.99,49.26,-35.39,-71.49,571,1,0,0
42774,94997.50,542.71,542.41,0.90,-0.16,0.28,7.25,4.26,49.19,-28.86,-70.29,571,1,0,0
42814,94994.71,542.95,542.41,0.90,-0.19,0.34,34.34,5.86,44.42,-29.13,-66.70,571,1,0,0
42850,95001.38,542.86,542.41,0.94,-0.24,0.22,10.35,9.20,42.97,-46.78,-70.97,571,1,0,0
42886,94994.71,542.95,542.41,0.85,-0.24,0.25,-2.69,10.54,41.14,-44.66,-67.74,571,1,0,0
42921,94995.05,542.92,542.41,0.77,-0.28,0.29,-8.98,8.98,38.42,-43.58,-62.55,571,1,0,0
42958,95000.66,542.43,542.41,0.78,-0.30,0.31,-4.04,8.85,35.61,-43.40,-60.96,571,1,0,0
42994,94992.59,543.14,542.42,0.75,-0.32,0.28,-13.82,10.94,32.93,-48.49,-60.44,571,1,0,0
43034,94996.52,542.79,542.42,0.73,-0.31,0.32,-1.76,14.17,28.62,-44.33,-58.79,571,1,0,0
43070,94995.39,542.89,542.42,0.76,-0.34,0.31,-4.69,17.85,26.55,-47.59,-59.15,571,1,0,0
43106,94994.71,542.95,542.42,0.73,-0.33,0.32,-13.39,20.43,27.09,-46.01,-57.74,571,1,0,0
43142,94995.77,543.11,542.42,0.71,-0.37,0.36,-8.66,23.64,28.32,-45.83,-54.06,571,1,0,0
43177,94992.59,543.14,542.43,0.74,-0.40,0.36,2.46,28.95,33.07,-48.17,-53.97,571,1,0,0
43213,94998.20,542.65,542.43,0.73,-0.40,0.37,-30.46,30.40,36.96,-46.95,-53.35,571,1,0,0
43253,94992.96,543.11,542.43,0.72,-0.45,0.42,-4.37,33.50,40.56,-46.98,-49.40,571,1,0,0
43290,95001.75,542.86,542.43,0.72,-0.40,0.40,9.48,35.40,43.48,-45.33,-51.68,571,1,0,0
43326,94993.72,543.04,542.43,0.70,-0.46,0.43,-10.95,36.05,46.42,-46.66,-47.94,571,1,0,0
43362,94998.20,542.89,542.43,0.65,-0.49,0.42,-5.48,38.08,49.95,-49.30,-45.15,571,1,0,0
43398,94992.96,543.11,542.44,0.63,-0.47,0.44,5.66,41.79,50.63,-47.08,-44.42,571,1,0,0
43433,94994.10,543.01,542.44,0.62,-0.48,0.43,-28.40,42.95,50.80,-48.36,-44.28,571,1,0,0
43483,94995.39,542.65,542.44,0.55,-0.54,0.47,-29.39,44.08,54.76,-49.17,-37.55,571,1,0,0
43518,95006.26,541.94,542.44,0.49,-0.53,0.44,-21.27,44.69,56.79,-50.45,-35.31,571,1,0,0
43554,94998.57,542.61,542.44,0.47,-0.56,0.43,-11.32,44.04,56.74,-52.75,-33.62,571,1,0,0
43590,95001.38,542.40,542.44,0.46,-0.57,0.48,7.77,42.39,52.70,-49.66,-31.83,571,1,0,0
43627,94998.95,542.58,542.44,0.43,-0.63,0.50,-7.37,31.97,44.34,-51.68,-28.19,571,1,0,0
43666,94998.57,542.61,542.44,0.40,-0.63,0.56,-26.49,33.78,48.50,-48.36,-25.08,571,1,0,0
43703,94995.77,542.65,542.44,0.31,-0.73,0.58,4.95,31.78,45.01,-51.50,-18.30,571,1,0,0
43739,94990.53,543.32,542.44,0.38,-0.78,0.66,-19.51,29.55,43.75,-49.57,-20.43,571,1,0,0
43785,95001.00,542.95,542.44,0.40,-0.70,0.60,-1.85,24.63,33.98,-49.41,-23.48,571,1,0,0
43821,94995.77,542.86,542.45,0.31,-0.72,0.68,9.30,19.09,26.25,-46.74,-17.64,571,1,0,0
43856,94994.32,542.89,542.45,0.28,-0.71,0.69,-36.28,14.35,22.66,-46.02,-15.93,571,1,0,0
43896,94995.39,542.89,542.45,0.26,-0.70,0.55,0.51,12.65,16.65,-51.59,-16.35,571,1,0,0
43932,94995.39,542.89,542.45,0.23,-0.74,0.63,24.60,11.82,14.74,-49.46,-13.59,571,1,0,0
43968,95002.13,542.30,542.45,0.21,-0.73,0.61,-24.41,9.05,17.56,-50.05,-12.41,571,1,0,0
44004,94995.77,542.86,542.45,0.19,-0.70,0.56,1.69,8.76,15.50,-51.62,-11.89,571,1,0,0
44041,95006.99,541.88,542.45,0.18,-0.76,0.68,31.75,11.28,13.21,-48.18,-10.08,571,1,0,0
44077,95007.36,542.65,542.45,0.26,-0.86,0.66,-28.50,11.10,15.10,-52.84,-13.25,571,1,0,0
44116,94998.57,542.37,542.45,0.22,-0.83,0.62,-10.73,10.37,14.89,-53.24,-12.21,571,1,0,0
44152,95002.13,542.30,542.45,0.21,-0.82,0.68,26.77,12.86,13.57,-50.35,-11.06,571,1,0,0
44188,95014.07,541.26,542.45,0.23,-0.84,0.65,-18.79,11.38,13.55,-52.19,-12.47,571,1,0,0
44224,95007.36,541.84,542.44,0.26,-0.84,0.63,0.84,9.00,10.83,-53.14,-13.80,571,1,0,0
44260,95001.38,542.37,542.44,0.20,-0.84,0.65,16.43,8.24,7.87,-52.31,-10.61,571,1,0,0
44296,94996.89,542.79,542.44,0.20,-0.77,0.63,-12.52,5.81,6.43,-50.67,-11.54,571,1,0,0
44336,95001.38,542.61,542.44,0.19,-0.77,0.61,-35.19,2.14,6.39,-51.91,-10.82,571,1,0,0
44371,95001.00,542.40,542.44,0.17,-0.78,0.59,1.25,2.25,4.59,-52.64,-9.92,571,1,0,0
44407,95001.38,542.37,542.44,0.12,-0.70,0.63,-13.58,0.98,5.81,-48.10,-7.22,571,1,0,0
44443,94996.52,542.79,542.45,0.15,-0.74,0.60,-50.56,-3.46,8.69,-50.61,-9.17,571,1,0,0
44479,95002.50,542.27,542.45,0.20,-0.77,0.61,4.39,-4.57,6.95,-51.74,-11.45,571,1,0,0
44515,95000.05,542.49,542.45,0.16,-0.77,0.63,30.72,-2.21,6.91,-50.79,-9.29,571,1,0,0
44555,94997.24,541.78,542.44,0.19,-0.79,0.64,-28.95,-1.80,10.97,-51.04,-10.37,571,1,0,0
44591,95001.75,542.33,542.44,0.21,-0.83,0.60,-8.72,-2.36,11.14,-54.16,-11.46,571,1,0,0
44626,94999.71,541.78,542.44,0.17,-0.80,0.62,23.06,-0.99,11.51,-51.92,-9.60,571,1,0,0
44662,95000.05,542.49,542.44,0.20,-0.81,0.62,-26.95,-0.63,13.01,-52.57,-10.90,571,1,0,0
44699,95000.05,542.49,542.44,0.21,-0.80,0.56,-37.86,-0.80,10.70,-55.06,-11.82,571,1,0,0
44735,95000.05,542.45,542.44,0.14,-0.74,0.54,-18.14,2.05,7.75,-53.75,-8.79,571,1,0,0
44774,95003.22,542.27,542.44,0.13,-0.79,0.58,-42.97,5.07,6.32,-53.60,-7.46,571,1,0,0
44810,94997.61,542.70,542.44,0.14,-0.79,0.53,-35.11,7.16,4.28,-56.03,-8.38,571,1,0,0
44846,95011.27,542.24,542.44,0.12,-0.79,0.50,-5.93,10.09,1.95,-57.77,-7.51,571,1,0,0
44882,95001.38,542.37,542.44,0.11,-0.82,0.56,-15.25,10.06,1.14,-55.50,-6.47,571,1,0,0
44918,94992.96,543.11,542.44,0.12,-0.86,0.52,-31.71,9.28,1.33,-58.84,-6.63,571,1,0,0
44954,94996.89,542.66,542.44,0.15,-0.85,0.47,-16.07,5.57,-1.41,-61.34,-8.61,571,1,0,0
44993,95012.02,542.17,542.44,0.12,-0.84,0.50,-14.42,0.87,-3.02,-59.23,-7.07,571,1,0,0
45029,95009.59,541.65,542.44,0.13,-0.89,0.50,-44.15,-1.50,-2.87,-60.67,-7.48,571,1,0,0
45066,95009.21,542.42,542.44,0.16,-0.79,0.24,-24.64,5.18,3.08,-72.84,-11.34,571,1,0,0
45102,95002.85,542.24,542.44,0.10,-0.80,0.50,12.44,8.27,5.91,-58.21,-6.21,571,1,0,0
45137,95001.55,542.35,542.44,0.12,-0.81,0.49,-16.11,5.95,8.08,-59.01,-7.27,571,1,0,0
45176,94999.10,542.57,542.44,0.12,-0.83,0.44,-12.56,4.78,9.15,-61.87,-7.37,571,1,0,0
45212,94993.14,542.78,542.44,0.08,-0.85,0.48,6.85,4.98,13.37,-60.76,-4.87,571,1,0,0
45248,95002.62,542.26,542.44,0.05,-0.87,0.48,-1.64,2.88,11.44,-61.34,-3.04,571,1,0,0
45284,94999.10,542.57,542.44,0.12,-0.89,0.46,-5.16,0.30,7.45,-62.83,-7.04,571,1,0,0
45320,95005.05,542.05,542.44,0.12,-0.89,0.44,-13.13,0.63,5.81,-63.35,-6.94,571,1,0,0
45356,95001.17,542.39,542.44,0.10,-0.86,0.45,-27.44,-1.30,3.02,-62.67,-5.81,571,1,0,0
45395,95004.35,542.11,542.44,0.11,-0.83,0.39,-12.46,2.04,2.12,-64.98,-6.77,571,1,0,0
45431,95001.17,542.88,542.44,0.10,-0.87,0.43,-3.72,3.44,5.29,-63.57,-5.99,571,1,0,0
45467,94999.10,542.57,542.44,0.08,-0.84,0.46,0.10,1.56,5.09,-61.67,-4.54,571,1,0,0
45512,94993.14,542.08,542.44,0.11,-0.86,0.45,-1.96,3.17,7.29,-62.71,-6.22,571,1,0,0
45548,95001.89,542.32,542.44,0.10,-0.85,0.44,2.86,4.62,7.13,-62.33,-5.88,571,1,0,0
45584,95001.89,542.32,542.44,0.08,-0.87,0.46,5.66,5.64,7.94,-62.20,-4.88,571,1,0,0
45623,95005.42,542.01,542.44,0.06,-0.89,0.47,-5.00,4.69,5.40,-62.25,-3.43,571,1,0,0
45659,95001.89,542.01,542.43,0.09,-0.89,0.43,-2.69,4.34,3.56,-63.99,-5.19,571,1,0,0
45694,94999.82,542.51,542.43,0.05,-0.85,0.44,-5.58,4.39,1.20,-62.54,-2.90,571,1,0,0
45730,95000.19,542.23,542.43,0.05,-0.87,0.47,-17.53,4.52,1.31,-61.86,-3.17,571,1,0,0
45766,95001.89,542.32,542.43,0.07,-0.84,0.44,-13.31,5.97,2.17,-62.25,-4.33,571,1,0,0
45812,94997.77,542.01,542.43,0.05,-0.85,0.47,14.63,7.04,2.74,-61.40,-3.14,571,1,0,0
45852,95005.80,542.96,542.43,0.09,-0.69,0.40,-42.62,6.40,4.25,-59.90,-6.74,571,1,0,0
45888,95005.42,542.01,542.43,0.04,-0.88,0.40,11.20,6.20,7.58,-65.55,-2.60,571,1,0,0
45924,94999.82,542.51,542.43,0.05,-0.87,0.46,3.81,3.36,7.65,-62.11,-2.63,571,1,0,0
45960,94999.82,542.44,542.43,0.06,-0.85,0.45,-11.28,0.47,4.49,-61.95,-3.50,571,1,0,0
45996,94999.44,542.54,542.43,0.06,-0.83,0.39,-21.06,-4.56,2.14,-64.95,-3.78,571,1,0,0
46031,95002.25,542.78,542.43,0.06,-0.82,0.38,-14.38,1.81,8.78,-65.16,-3.59,571,1,0,0
46070,94999.44,542.54,542.43,0.12,-0.82,0.30,-23.03,3.04,1.58,-70.28,-7.60,571,1,0,0
46106,94999.44,542.54,542.43,0.05,-0.86,0.45,-1.36,3.05,1.14,-62.20,-2.96,571,1,0,0
46142,95005.80,541.98,542.43,0.04,-0.86,0.45,-4.01,4.09,2.04,-62.46,-2.21,571,1,0,0
46178,95005.80,542.23,542.43,0.04,-0.86,0.46,-6.37,4.28,2.71,-61.76,-2.48,571,1,0,0
46214,95006.17,541.95,542.43,0.05,-0.87,0.44,-5.14,3.04,2.82,-63.10,-2.79,571,1,0,0
46249,95003.72,542.41,542.43,0.04,-0.86,0.45,-2.88,2.39,2.19,-62.47,-2.40,571,1,0,0
46289,95005.42,542.01,542.43,0.03,-0.85,0.42,-6.52,3.04,2.28,-63.79,-1.66,571,1,0,0
46324,94993.83,542.93,542.43,0.04,-0.87,0.47,-13.06,2.61,1.84,-61.74,-2.44,571,1,0,0
46360,95002.62,542.26,542.43,0.04,-0.86,0.44,-4.82,1.98,1.52,-63.01,-2.14,571,1,0,0
46396,95000.92,542.65,542.43,0.04,-0.88,0.44,-9.35,1.27,1.65,-63.72,-2.42,571,1,0,0
46432,94995.31,542.90,542.43,0.04,-0.82,0.42,2.55,2.62,2.13,-63.17,-2.29,571,1,0,0
46467,95000.57,542.44,542.43,0.12,-0.81,0.60,-0.32,-0.69,-0.46,-53.81,-6.82,571,1,0,0
46507,95001.67,542.34,542.43,0.03,-0.88,0.46,-0.94,1.52,0.37,-62.14,-1.72,571,1,0,0
46542,95004.47,542.34,542.43,0.04,-0.87,0.45,-3.97,1.77,1.08,-62.99,-2.31,571,1,0,0
46577,94996.06,542.83,542.43,0.04,-0.86,0.45,0.24,2.20,1.14,-62.69,-2.58,571,1,0,0
46613,95000.92,542.41,542.43,0.04,-0.87,0.45,-6.56,1.95,1.65,-62.76,-2.64,571,1,0,0
46649,95004.10,542.38,542.43,0.04,-0.87,0.45,-2.99,1.92,1.06,-62.48,-2.13,571,1,0,0
46685,95003.72,542.16,542.43,0.03,-0.86,0.44,-4.96,2.08,1.20,-62.78,-1.95,571,1,0,0
46724,95004.10,542.13,542.43,0.04,-0.86,0.44,-4.43,1.82,1.13,-62.72,-2.44,571,1,0,0
46759,95001.67,542.34,542.43,0.04,-0.86,0.44,-4.94,1.91,1.53,-62.81,-2.49,571,1,0,0
46796,95002.76,542.25,542.43,0.03,-0.87,0.45,-4.97,1.90,1.38,-62.78,-2.03,571,1,0,0
46832,95004.47,542.10,542.43,0.05,-0.85,0.46,-3.98,1.95,1.27,-61.79,-2.87,571,1,0,0
46868,94999.24,542.28,542.43,0.04,-0.87,0.44,-4.56,1.88,1.12,-62.92,-2.51,571,1,0,0
46904,94999.24,542.56,542.43,0.04,-0.86,0.44,-4.42,1.79,1.24,-62.74,-2.15,571,1,0,0
46944,95001.67,542.34,542.43,0.04,-0.86,0.44,-4.52,1.91,1.17,-62.95,-2.36,571,1,0,0
46980,95004.85,542.06,542.43,0.04,-0.86,0.44,-4.88,1.95,1.24,-62.88,-2.64,571,1,0,0
47015,94996.81,542.77,542.43,0.04,-0.87,0.44,-4.59,1.82,1.24,-63.36,-2.52,571,1,0,0
47051,95001.67,542.34,542.43,0.04,-0.86,0.45,-4.76,1.66,1.37,-62.39,-2.43,571,1,0,0
47088,95002.42,542.28,542.43,0.04,-0.86,0.44,-4.60,1.88,1.22,-62.74,-2.13,571,1,0,0
47124,95002.42,542.28,542.43,0.04,-0.87,0.44,-4.81,1.93,1.03,-63.07,-2.33,571,1,0,0
47160,94996.43,542.31,542.43,0.05,-0.86,0.44,-4.65,1.90,1.40,-62.95,-2.87,571,1,0,0
47194,94999.96,542.49,542.43,0.04,-0.86,0.44,-4.78,1.75,1.14,-62.96,-2.54,571,1,0,0
47229,95003.11,542.22,542.43,0.04,-0.87,0.44,-4.62,1.84,1.14,-63.36,-2.29,571,1,0,0
47265,95003.11,542.06,542.43,0.05,-0.86,0.44,-4.63,1.79,1.09,-62.76,-2.68,571,1,0,0
47301,95002.42,542.28,542.42,0.04,-0.86,0.44,-4.68,1.83,1.27,-63.05,-2.34,571,1,0,0
47337,95000.31,542.15,542.42,0.04,-0.86,0.44,-4.65,1.75,1.22,-62.87,-2.18,571,1,0,0
47374,94998.25,542.64,542.42,0.04,-0.86,0.45,-4.70,1.72,1.21,-62.74,-2.37,571,1,0,0
47413,95003.11,542.22,542.42,0.04,-0.86,0.44,-4.69,1.74,1.21,-62.78,-2.31,571,1,0,0
47450,95003.11,542.22,542.42,0.04,-0.87,0.44,-4.68,1.72,1.23,-63.05,-2.56,571,1,0,0
47485,95003.11,542.18,542.42,0.04,-0.86,0.45,-4.59,2.04,1.17,-62.67,-2.47,571,1,0,0
47521,95003.11,542.22,542.42,0.04,-0.86,0.44,-4.59,1.85,1.30,-62.92,-2.39,571,1,0,0
47566,95003.11,542.28,542.42,0.04,-0.86,0.44,-4.70,1.79,1.11,-62.75,-2.49,571,1,0,0
47602,94999.96,542.49,542.42,0.04,-0.87,0.45,-4.64,1.89,1.06,-62.61,-2.42,571,1,0,0
47642,95006.66,541.90,542.42,0.04,-0.87,0.44,-4.67,1.89,1.40,-63.04,-2.29,571,1,0,0
47678,95002.04,542.25,542.42,0.04,-0.87,0.44,-4.71,1.88,1.17,-63.09,-2.33,571,1,0,0
47714,95000.31,542.46,542.42,0.03,-0.86,0.45,-4.78,1.80,1.22,-62.16,-2.01,571,1,0,0
47750,95000.68,542.43,542.42,0.04,-0.86,0.45,-4.65,2.02,1.17,-62.61,-2.12,571,1,0,0
47787,95005.91,541.97,542.42,0.04,-0.87,0.45,-4.72,1.71,1.24,-62.63,-2.34,571,1,0,0
47834,95005.91,542.00,542.42,0.04,-0.86,0.44,-4.68,1.88,1.26,-63.08,-2.34,571,1,0,0
47873,95008.72,542.22,542.42,0.04,-0.86,0.44,-4.59,1.84,1.27,-62.62,-2.63,571,1,0,0
47909,95005.91,541.97,542.41,0.04,-0.86,0.45,-4.66,1.85,1.18,-62.39,-2.49,571,1,0,0
47945,95006.28,541.94,542.41,0.04,-0.87,0.45,-4.62,1.73,1.43,-62.68,-2.14,571,1,0,0
47981,95008.72,541.72,542.41,0.04,-0.86,0.44,-4.76,1.71,1.32,-63.00,-2.53,571,1,0,0
48017,94997.50,542.71,542.41,0.05,-0.86,0.46,-4.67,1.75,1.10,-62.20,-2.78,571,1,0,0
48053,95002.76,542.28,542.41,0.04,-0.86,0.44,-4.63,1.76,1.19,-62.79,-2.61,571,1,0,0
48093,94997.50,542.52,542.41,0.04,-0.87,0.44,-4.73,1.91,1.07,-62.87,-2.37,571,1,0,0
48129,95002.76,542.25,542.41,0.04,-0.86,0.44,-4.68,1.95,1.17,-62.88,-2.31,571,1,0,0
48164,95005.91,542.25,542.41,0.04,-0.86,0.44,-4.65,1.79,1.29,-62.98,-2.56,571,1,0,0
48200,95004.85,542.06,542.41,0.04,-0.86,0.44,-4.75,1.75,1.29,-62.72,-2.21,571,1,0,0
48237,95006.28,541.94,542.41,0.04,-0.86,0.45,-4.75,1.91,1.12,-62.71,-2.20,571,1,0,0
48273,95002.76,542.25,542.41,0.03,-0.86,0.44,-4.71,1.91,1.34,-62.68,-1.95,571,1,0,0
48313,94997.88,542.77,542.41,0.04,-0.86,0.44,-4.65,1.82,1.23,-62.91,-2.13,571,1,0,0
48349,95005.91,541.97,542.41,0.03,-0.86,0.44,-4.63,1.79,1.21,-62.58,-2.06,571,1,0,0
48385,94999.24,542.71,542.41,0.03,-0.86,0.44,-4.77,1.90,1.39,-62.68,-2.07,571,1,0,0
48420,95006.66,541.90,542.41,0.03,-0.86,0.45,-4.70,1.81,1.27,-62.57,-1.94,571,1,0,0
48456,95000.31,541.72,542.40,0.04,-0.86,0.44,-4.55,1.82,1.15,-62.78,-2.07,571,1,0,0
48492,94994.35,542.98,542.41,0.04,-0.86,0.45,-4.60,1.94,1.18,-62.60,-2.18,571,1,0,0
48532,95008.02,541.79,542.40,0.04,-0.86,0.44,-4.56,1.85,1.03,-62.81,-2.16,571,1,0,0
48568,95003.86,542.15,542.40,0.04,-0.86,0.45,-4.78,1.85,1.49,-62.63,-2.23,571,1,0,0
48604,94995.07,542.18,542.40,0.04,-0.86,0.44,-4.57,1.56,1.33,-62.68,-2.62,571,1,0,0
48640,95002.76,542.25,542.40,0.04,-0.86,0.45,-4.88,1.97,1.07,-62.42,-2.48,571,1,0,0
48676,94998.25,542.22,542.40,0.04,-0.86,0.45,-4.78,1.64,1.15,-62.36,-2.62,571,1,0,0
48712,94997.88,542.68,542.40,0.04,-0.87,0.45,-4.73,1.57,1.26,-62.79,-2.28,571,1,0,0
48752,95003.11,542.22,542.40,0.05,-0.86,0.44,-4.66,1.79,1.11,-62.67,-2.68,571,1,0,0
48788,95003.49,542.18,542.40,0.04,-0.86,0.45,-4.66,1.89,1.30,-62.26,-2.43,571,1,0,0
48824,95008.02,541.72,542.40,0.04,-0.86,0.45,-4.59,1.95,1.01,-62.66,-2.07,571,1,0,0
48860,95007.39,541.84,542.40,0.04,-0.86,0.45,-4.47,1.82,1.43,-62.49,-2.30,571,1,0,0
48896,95000.31,542.18,542.40,0.04,-0.86,0.45,-4.70,1.64,1.27,-62.67,-2.29,571,1,0,0
48931,95006.66,541.90,542.39,0.05,-0.86,0.44,-4.72,1.96,1.51,-63.04,-2.81,571,1,0,0
48971,95000.68,542.43,542.40,0.04,-0.86,0.45,-4.54,1.84,1.30,-62.46,-2.14,571,1,0,0
49007,94997.50,542.71,542.40,0.04,-0.86,0.44,-4.70,1.86,1.46,-62.68,-2.09,571,1,0,0
49043,95004.24,542.12,542.40,0.04,-0.87,0.45,-4.73,1.74,1.04,-62.64,-2.18,571,1,0,0
49079,95000.68,542.43,542.40,0.03,-0.86,0.45,-4.68,1.81,1.32,-62.57,-1.84,571,1,0,0
49115,95010.57,542.43,542.40,0.04,-0.86,0.44,-4.57,1.79,1.27,-62.74,-2.45,571,1,0,0
49150,95003.11,542.22,542.39,0.04,-0.86,0.44,-4.81,1.88,1.27,-62.88,-2.19,571,1,0,0
49190,95001.06,542.40,542.39,0.04,-0.86,0.44,-4.66,1.75,1.21,-62.99,-2.47,571,1,0,0
49226,95003.49,542.18,542.39,0.04,-0.86,0.45,-4.83,2.15,1.27,-62.26,-2.28,571,1,0,0
49262,95004.24,542.12,542.39,0.04,-0.87,0.43,-4.82,1.88,1.09,-63.41,-2.55,571,1,0,0
49298,95003.86,542.15,542.39,0.03,-0.86,0.44,-4.46,1.91,1.38,-63.13,-2.05,571,1,0,0
49335,95003.86,542.61,542.39,0.04,-0.86,0.44,-4.67,1.73,1.16,-62.78,-2.11,571,1,0,0
49371,94999.35,542.55,542.39,0.04,-0.86,0.44,-4.61,1.92,1.13,-62.84,-2.44,571,1,0,0
49410,95001.43,542.36,542.39,0.04,-0.86,0.44,-4.76,1.86,1.30,-62.77,-2.43,571,1,0,0
49446,95005.33,542.02,542.39,0.03,-0.87,0.45,-4.81,1.84,1.18,-62.66,-2.03,571,1,0,0
49482,95001.43,542.36,542.39,0.04,-0.86,0.45,-4.81,1.93,1.28,-62.70,-2.22,571,1,0,0
49518,95007.39,541.84,542.39,0.03,-0.86,0.45,-4.66,1.81,1.40,-62.51,-1.98,571,1,0,0
49554,94998.25,542.64,542.39,0.04,-0.86,0.45,-4.53,1.79,1.39,-62.31,-2.27,571,1,0,0
49599,95001.43,542.36,542.39,0.03,-0.87,0.44,-4.70,1.77,1.28,-63.11,-2.04,571,1,0,0
49638,95004.24,542.12,542.39,0.04,-0.87,0.45,-4.71,1.89,1.19,-62.73,-2.24,571,1,0,0
49674,94998.63,542.71,542.39,0.04,-0.86,0.45,-4.60,1.78,1.18,-62.40,-2.35,571,1,0,0
49711,95001.43,542.36,542.39,0.04,-0.86,0.45,-4.66,1.89,1.04,-62.53,-2.17,571,1,0,0
49746,94999.35,542.55,542.39,0.04,-0.86,0.45,-4.62,1.75,1.20,-62.66,-2.54,571,1,0,0
49782,95004.58,542.09,542.39,0.04,-0.86,0.45,-4.78,2.03,1.47,-62.43,-2.31,571,1,0,0
49818,95003.49,542.18,542.39,0.04,-0.87,0.44,-4.68,1.85,1.21,-62.99,-2.39,571,1,0,0
49868,95004.96,542.55,542.39,0.04,-0.87,0.44,-4.72,1.82,1.25,-63.00,-2.11,571,1,0,0
49904,95001.06,542.40,542.39,0.04,-0.86,0.45,-4.59,1.77,1.19,-62.61,-2.39,571,1,0,0
49940,95007.39,541.84,542.39,0.04,-0.87,0.43,-4.82,1.88,1.20,-63.63,-2.31,571,1,0,0
49977,95004.24,542.12,542.39,0.04,-0.87,0.45,-4.62,1.91,1.08,-62.73,-2.42,571,1,0,0
50013,95005.33,542.02,542.39,0.04,-0.87,0.45,-4.70,1.84,1.37,-62.42,-2.41,571,1,0,0
50049,94999.72,542.86,542.39,0.04,-0.87,0.45,-4.67,1.69,1.09,-62.79,-2.27,571,1,0,0
50087,95002.53,542.12,542.39,0.04,-0.86,0.45,-4.59,1.96,1.12,-62.45,-2.14,571,1,0,0
50123,95002.16,542.30,542.39,0.04,-0.85,0.45,-4.62,1.79,1.29,-62.07,-2.21,571,1,0,0
50159,94999.35,542.55,542.39,0.04,-0.86,0.44,-4.68,1.87,1.27,-62.89,-2.30,571,1,0,0
50196,94997.30,542.73,542.39,0.03,-0.86,0.44,-4.66,1.98,1.14,-63.25,-2.01,571,1,0,0
50232,94998.97,542.58,542.39,0.04,-0.87,0.44,-4.62,1.80,1.30,-63.00,-2.60,571,1,0,0
50268,95015.80,542.48,542.39,0.03,-0.86,0.44,-4.74,1.79,1.10,-63.10,-1.99,571,1,0,0
50307,95005.71,542.55,542.39,0.04,-0.86,0.44,-4.71,1.79,1.46,-62.75,-2.36,571,1,0,0
50342,95004.58,542.09,542.39,0.03,-0.86,0.44,-4.62,1.90,1.37,-62.72,-2.05,571,1,0,0
50379,95006.09,541.95,542.39,0.04,-0.86,0.45,-4.60,1.94,1.36,-62.60,-2.28,571,1,0,0
50415,94998.97,542.58,542.39,0.04,-0.87,0.44,-4.72,1.89,1.05,-62.91,-2.23,571,1,0,0
50451,95005.33,542.02,542.39,0.05,-0.86,0.44,-4.81,1.79,1.08,-62.95,-2.67,571,1,0,0
50487,95004.96,542.48,542.39,0.04,-0.86,0.45,-4.78,1.85,1.37,-62.57,-2.20,571,1,0,0
50526,94998.97,542.55,542.39,0.03,-0.87,0.45,-4.72,1.75,1.28,-62.82,-2.05,571,1,0,0
50562,95003.63,542.17,542.39,0.03,-0.86,0.44,-4.69,1.95,1.21,-63.14,-2.01,571,1,0,0
50597,95005.33,542.02,542.39,0.04,-0.86,0.44,-4.68,1.75,1.28,-62.85,-2.30,571,1,0,0
50634,95005.33,542.02,542.39,0.04,-0.86,0.44,-4.67,1.95,1.08,-62.78,-2.12,571,1,0,0
50670,94999.72,542.51,542.39,0.04,-0.86,0.44,-4.85,1.76,1.09,-62.72,-2.46,571,1,0,0
50706,95001.78,542.51,542.39,0.04,-0.86,0.45,-4.72,1.87,1.25,-62.59,-2.40,571,1,0,0
50745,95002.53,542.55,542.39,0.04,-0.87,0.43,-4.71,1.89,1.19,-63.47,-2.21,571,1,0,0
50781,95006.09,541.95,542.39,0.03,-0.87,0.44,-4.82,1.75,1.10,-63.05,-2.01,571,1,0,0
50817,94999.35,542.55,542.39,0.05,-0.87,0.45,-4.67,1.74,1.16,-62.65,-2.70,571,1,0,0
50852,95004.96,542.05,542.38,0.04,-0.87,0.45,-4.62,1.92,1.33,-62.64,-2.17,571,1,0,0
50888,95005.33,542.02,542.38,0.03,-0.86,0.44,-4.47,1.74,1.34,-63.09,-1.98,571,1,0,0
50924,95005.71,542.27,542.38,0.04,-0.86,0.45,-4.69,1.82,1.05,-62.50,-2.22,571,1,0,0
50964,95004.58,542.23,542.38,0.04,-0.86,0.44,-4.75,1.87,1.13,-62.72,-2.35,571,1,0,0
51000,95016.55,541.04,542.38,0.04,-0.86,0.44,-4.68,1.88,1.14,-63.10,-2.47,571,1,0,0
51036,95004.58,542.09,542.38,0.04,-0.86,0.45,-4.69,1.81,1.40,-62.33,-2.27,571,1,0,0
51072,95000.10,542.48,542.38,0.04,-0.87,0.44,-4.72,1.95,1.28,-62.82,-2.38,571,1,0,0
51107,95004.96,542.05,542.38,0.04,-0.86,0.44,-4.71,1.88,1.25,-62.99,-2.48,571,1,0,0
51143,95005.71,542.45,542.38,0.04,-0.86,0.44,-4.67,1.85,1.22,-62.94,-2.52,571,1,0,0
51183,95005.71,542.97,542.38,0.04,-0.87,0.45,-4.70,1.75,1.37,-62.66,-2.44,571,1,0,0
51219,95002.53,542.27,542.38,0.04,-0.87,0.45,-4.53,1.74,1.17,-62.43,-2.42,571,1,0,0
51255,94999.72,542.51,542.38,0.04,-0.86,0.44,-4.49,1.90,1.38,-62.70,-2.41,571,1,0,0
51291,95002.16,542.20,542.38,0.04,-0.86,0.44,-4.71,1.75,1.24,-62.80,-2.40,571,1,0,0
51326,95005.71,541.99,542.38,0.04,-0.87,0.44,-4.68,1.76,1.31,-63.09,-2.45,571,1,0,0
51362,95008.52,542.02,542.38,0.04,-0.86,0.45,-4.76,1.85,1.23,-62.53,-2.42,571,1,0,0
51402,94998.39,541.40,542.37,0.04,-0.86,0.44,-4.73,1.78,1.41,-62.76,-2.22,571,1,0,0
51438,95004.96,542.05,542.37,0.03,-0.86,0.45,-4.71,1.80,1.01,-62.15,-2.06,571,1,0,0
51474,94997.30,542.73,542.37,0.04,-0.86,0.45,-4.50,1.99,1.11,-62.73,-2.26,571,1,0,0
51510,95006.09,541.99,542.37,0.04,-0.86,0.45,-4.62,1.83,1.27,-62.74,-2.26,571,1,0,0
51546,95000.10,542.48,542.37,0.04,-0.87,0.45,-4.55,1.98,1.16,-62.79,-2.11,571,1,0,0
51581,95012.42,541.99,542.37,0.03,-0.86,0.45,-4.80,1.85,1.28,-62.40,-1.85,571,1,0,0
51630,95006.44,541.95,542.37,0.04,-0.86,0.45,-4.61,1.83,1.23,-62.61,-2.56,571,1,0,0
51665,95003.28,542.20,542.37,0.04,-0.86,0.45,-4.55,1.88,1.22,-62.53,-2.35,571,1,0,0
51701,95008.89,541.71,542.37,0.04,-0.86,0.44,-4.71,1.84,1.15,-62.83,-2.20,571,1,0,0
51737,95003.28,542.20,542.37,0.04,-0.86,0.45,-4.78,1.94,1.23,-62.45,-2.23,571,1,0,0
51773,95004.38,542.10,542.37,0.04,-0.86,0.44,-4.72,1.82,1.31,-63.14,-2.39,571,1,0,0
51809,95001.21,542.38,542.37,0.04,-0.86,0.44,-4.54,2.18,1.27,-62.93,-2.47,571,1,0,0
51860,95006.09,541.95,542.36,0.04,-0.86,0.44,-4.62,1.95,1.05,-62.78,-2.52,571,1,0,0
51896,95006.44,541.93,542.36,0.04,-0.86,0.44,-4.67,1.92,1.16,-62.79,-2.61,571,1,0,0
51932,95007.53,541.89,542.36,0.04,-0.86,0.44,-4.82,1.71,1.32,-63.04,-2.49,571,1,0,0
51968,95006.82,541.89,542.36,0.04,-0.86,0.45,-4.59,1.80,1.24,-62.46,-2.20,571,1,0,0
52003,95012.04,541.99,542.36,0.03,-0.86,0.45,-4.65,1.80,1.35,-62.59,-1.96,571,1,0,0
52039,95006.44,541.93,542.36,0.05,-0.86,0.44,-4.72,1.82,1.34,-63.21,-2.82,571,1,0,0
52078,95006.09,541.95,542.36,0.04,-0.86,0.44,-4.75,1.82,1.34,-62.85,-2.22,571,1,0,0
52114,95007.19,541.86,542.36,0.04,-0.87,0.45,-4.70,2.05,1.22,-62.69,-2.10,571,1,0,0
52150,95003.28,542.94,542.36,0.03,-0.86,0.44,-4.75,1.97,1.24,-62.79,-2.02,571,1,0,0
52186,95004.38,542.10,542.36,0.04,-0.87,0.44,-4.70,2.06,1.24,-63.10,-2.52,571,1,0,0
52221,95004.38,542.10,542.36,0.04,-0.86,0.45,-4.62,1.98,1.41,-62.61,-2.15,571,1,0,0
52257,95001.21,542.38,542.36,0.04,-0.87,0.44,-4.66,1.95,1.06,-62.96,-2.21,571,1,0,0
52297,95000.10,542.48,542.36,0.04,-0.86,0.45,-4.71,1.89,1.32,-62.33,-2.17,571,1,0,0
52333,95000.48,542.45,542.36,0.04,-0.86,0.45,-4.54,1.98,1.15,-62.72,-2.17,571,1,0,0
52369,95001.21,542.66,542.36,0.04,-0.86,0.45,-4.74,1.69,1.19,-62.61,-2.36,571,1,0,0
52405,95003.63,542.17,542.36,0.03,-0.86,0.44,-4.71,1.78,1.02,-63.14,-2.04,571,1,0,0
52441,95007.19,541.61,542.35,0.04,-0.86,0.45,-4.64,2.04,1.20,-62.74,-2.16,571,1,0,0
52476,95006.44,541.93,542.35,0.03,-0.86,0.45,-4.57,2.02,1.30,-62.73,-2.04,571,1,0,0
52516,95004.38,542.14,542.35,0.04,-0.86,0.45,-4.78,2.00,1.27,-62.63,-2.40,571,1,0,0
52552,95007.53,541.83,542.35,0.04,-0.87,0.45,-4.78,1.75,1.17,-62.85,-2.08,571,1,0,0
52588,95004.00,541.86,542.35,0.04,-0.86,0.44,-4.68,1.88,1.31,-62.88,-2.41,571,1,0,0
52624,95004.38,542.10,542.35,0.04,-0.87,0.44,-4.72,1.79,1.06,-63.05,-2.25,571,1,0,0
52659,95005.10,542.04,542.35,0.04,-0.86,0.44,-4.78,1.82,1.21,-62.78,-2.35,571,1,0,0
52695,95003.63,542.17,542.35,0.04,-0.87,0.44,-4.68,1.79,1.30,-63.08,-2.57,571,1,0,0
52734,94998.39,542.66,542.35,0.04,-0.86,0.44,-4.75,1.79,1.19,-62.97,-2.37,571,1,0,0
52770,95001.21,542.38,542.35,0.04,-0.85,0.45,-4.75,1.91,1.36,-62.26,-2.32,571,1,0,0
52806,95006.09,542.20,542.35,0.04,-0.86,0.44,-4.79,1.79,1.08,-62.85,-2.39,571,1,0,0
52842,95006.09,541.95,542.35,0.04,-0.86,0.45,-4.71,1.75,1.44,-62.48,-2.27,571,1,0,0
52878,95004.00,542.14,542.35,0.04,-0.86,0.45,-4.62,1.75,1.13,-62.30,-2.61,571,1,0,0
52914,95006.44,541.93,542.34,0.04,-0.86,0.44,-4.58,1.89,1.30,-62.94,-2.42,571,1,0,0
52954,95001.92,542.29,542.34,0.04,-0.86,0.45,-4.58,1.90,1.28,-62.28,-2.22,571,1,0,0
52989,95006.44,541.93,542.34,0.04,-0.86,0.44,-4.79,1.98,1.46,-63.05,-2.42,571,1,0,0
53024,94998.39,542.38,542.34,0.04,-0.86,0.44,-4.65,1.72,1.08,-62.66,-2.53,571,1,0,0
53060,95003.63,542.17,542.34,0.04,-0.86,0.44,-4.81,1.87,1.37,-62.90,-2.45,571,1,0,0
53096,95000.83,542.42,542.34,0.04,-0.86,0.44,-4.67,1.85,1.24,-63.02,-2.24,571,1,0,0
53132,95000.48,542.42,542.34,0.04,-0.86,0.45,-4.52,1.84,1.34,-62.49,-2.33,571,1,0,0
53172,95007.53,542.35,542.34,0.04,-0.86,0.44,-4.63,1.75,1.05,-62.94,-2.19,571,1,0,0
53208,95004.38,542.10,542.34,0.03,-0.86,0.44,-4.63,1.91,1.06,-62.86,-1.88,571,1,0,0
53243,94998.77,542.60,542.34,0.04,-0.86,0.44,-4.67,1.69,1.25,-62.94,-2.21,571,1,0,0
53279,95001.21,542.38,542.34,0.04,-0.87,0.44,-4.68,1.98,1.13,-63.12,-2.09,571,1,0,0
53315,95009.99,541.61,542.34,0.04,-0.87,0.45,-4.62,1.85,1.47,-62.71,-2.18,571,1,0,0
53351,95001.58,542.53,542.34,0.04,-0.86,0.44,-4.61,1.94,1.40,-62.78,-2.12,571,1,0,0
53390,95007.91,542.29,542.34,0.04,-0.86,0.45,-4.68,1.85,1.19,-62.68,-2.44,571,1,0,0
53426,95007.53,541.83,542.34,0.04,-0.86,0.45,-4.79,1.82,1.34,-62.55,-2.17,571,1,0,0
53462,95001.58,542.35,542.34,0.04,-0.86,0.45,-4.75,1.94,1.11,-62.66,-2.24,571,1,0,0
53497,95007.91,542.08,542.34,0.04,-0.86,0.44,-4.62,1.85,1.50,-62.77,-2.26,571,1,0,0
53532,95001.21,542.38,542.34,0.04,-0.86,0.44,-4.69,1.92,1.14,-62.79,-2.34,571,1,0,0
53568,95001.58,542.35,542.34,0.04,-0.86,0.44,-4.79,1.82,1.25,-62.76,-2.41,571,1,0,0
53699,95005.46,541.86,542.34,0.03,-0.86,0.45,-4.69,1.91,1.24,-62.49,-2.02,571,1,0,0
53735,94996.32,542.81,542.34,0.04,-0.86,0.45,-4.75,1.95,1.53,-62.46,-2.52,571,1,0,0
53770,94994.23,543.00,542.34,0.04,-0.86,0.45,-4.84,1.92,1.17,-62.41,-2.41,571,1,0,0
53806,95004.38,542.04,542.34,0.04,-0.86,0.45,-4.72,1.83,1.26,-62.47,-2.48,571,1,0,0
53841,95004.73,542.08,542.34,0.03,-0.87,0.44,-4.75,1.88,1.17,-62.82,-1.95,571,1,0,0
53877,95001.92,541.34,542.34,0.04,-0.86,0.45,-4.75,1.88,1.26,-62.67,-2.33,571,1,0,0
53928,95009.00,541.70,542.33,0.04,-0.87,0.46,-4.73,1.95,1.11,-62.16,-2.26,571,1,0,0
53964,95005.83,541.98,542.33,0.04,-0.86,0.45,-4.62,1.89,1.17,-62.61,-2.57,571,1,0,0
54000,95004.73,542.01,542.33,0.04,-0.87,0.44,-4.62,1.69,1.21,-62.85,-2.27,571,1,0,0
54036,95003.02,542.22,542.33,0.04,-0.87,0.45,-4.68,1.79,1.34,-62.68,-2.45,571,1,0,0
54073,94999.50,542.32,542.33,0.04,-0.87,0.45,-4.66,1.70,1.25,-62.80,-2.42,571,1,0,0
54109,95005.83,541.98,542.33,0.04,-0.86,0.44,-4.66,1.91,1.26,-62.70,-2.32,571,1,0,0
54149,95007.19,541.86,542.33,0.04,-0.86,0.45,-4.71,1.94,1.21,-62.52,-2.33,571,1,0,0
54184,94997.03,542.75,542.33,0.04,-0.86,0.44,-4.59,1.89,1.42,-62.77,-2.52,571,1,0,0
54220,94998.77,542.60,542.33,0.04,-0.87,0.45,-4.57,2.04,1.11,-62.71,-2.30,571,1,0,0
54256,95000.22,542.47,542.33,0.03,-0.86,0.44,-4.78,1.73,1.17,-62.82,-2.00,571,1,0,0
54292,95003.39,542.26,542.33,0.04,-0.86,0.44,-4.71,1.80,1.42,-63.15,-2.21,571,1,0,0
54329,95006.21,541.95,542.33,0.04,-0.86,0.44,-4.60,1.88,1.21,-62.82,-2.25,571,1,0,0
54369,95011.06,541.52,542.33,0.04,-0.87,0.44,-4.74,1.71,1.40,-63.05,-2.09,571,1,0,0
54405,95008.25,542.01,542.33,0.04,-0.86,0.45,-4.62,1.88,1.21,-62.64,-2.11,571,1,0,0
54440,95009.38,541.67,542.32,0.04,-0.87,0.45,-4.73,1.79,1.28,-62.36,-2.35,571,1,0,0
54476,95009.75,541.63,542.32,0.04,-0.86,0.44,-4.68,1.85,1.33,-62.98,-2.26,571,1,0,0
54512,95005.10,542.04,542.32,0.04,-0.86,0.44,-4.63,1.72,1.19,-62.79,-2.44,571,1,0,0
54548,95004.50,542.09,542.32,0.04,-0.87,0.44,-4.79,1.92,1.25,-63.04,-2.39,571,1,0,0
54588,95009.75,541.63,542.32,0.04,-0.86,0.44,-4.80,1.77,1.30,-62.83,-2.32,571,1,0,0
54624,95008.25,541.98,542.32,0.04,-0.86,0.44,-4.78,1.70,1.06,-62.73,-2.35,571,1,0,0
54661,95003.77,542.16,542.32,0.05,-0.86,0.45,-4.81,1.85,1.27,-62.53,-2.91,571,1,0,0
54696,95005.46,542.50,542.32,0.04,-0.87,0.44,-4.70,1.98,1.34,-62.95,-2.30,571,1,0,0
54732,95012.18,541.42,542.31,0.04,-0.86,0.44,-4.65,1.95,1.34,-62.90,-2.53,571,1,0,0
54768,95003.02,542.22,542.31,0.04,-0.86,0.45,-4.65,1.79,1.25,-62.58,-2.32,571,1,0,0
54808,95003.39,542.19,542.31,0.04,-0.86,0.45,-4.81,1.91,1.10,-62.50,-2.27,571,1,0,0
54844,95003.39,542.22,542.31,0.04,-0.86,0.45,-4.65,1.82,1.13,-62.68,-2.48,571,1,0,0
54880,95001.35,542.37,542.31,0.04,-0.86,0.45,-4.62,1.86,1.17,-62.56,-2.30,571,1,0,0
54917,95009.00,541.95,542.31,0.04,-0.85,0.45,-4.81,1.92,1.16,-62.43,-2.15,571,1,0,0
54952,95003.77,542.16,542.31,0.05,-0.86,0.45,-4.71,1.82,1.19,-62.44,-2.67,571,1,0,0
54988,95003.02,541.98,542.31,0.05,-0.87,0.44,-4.69,1.92,1.14,-62.96,-2.71,571,1,0,0
55028,95005.83,541.98,542.31,0.04,-0.86,0.44,-4.67,1.96,1.34,-62.73,-2.08,571,1,0,0
55064,95006.96,541.88,542.31,0.03,-0.87,0.45,-4.76,1.84,0.97,-62.70,-1.98,571,1,0,0
55100,95004.50,542.09,542.31,0.04,-0.86,0.44,-4.62,1.88,1.27,-63.09,-2.34,571,1,0,0
55136,95003.77,542.01,542.31,0.04,-0.86,0.44,-4.67,1.92,1.06,-62.94,-2.49,571,1,0,0
55172,95003.39,542.19,542.31,0.04,-0.86,0.44,-4.68,1.82,1.12,-62.94,-2.13,571,1,0,0
55207,95008.63,542.16,542.31,0.03,-0.86,0.44,-4.75,1.91,1.19,-62.94,-1.90,571,1,0,0
55247,94999.11,541.83,542.31,0.04,-0.86,0.44,-4.81,1.94,1.01,-62.75,-2.21,571,1,0,0
55283,95006.58,541.91,542.30,0.03,-0.86,0.44,-4.52,1.91,1.21,-63.04,-2.00,571,1,0,0
55320,95001.92,542.32,542.30,0.04,-0.86,0.45,-4.68,1.84,1.31,-62.45,-2.17,571,1,0,0
55356,95000.60,542.40,542.30,0.04,-0.86,0.45,-4.67,1.94,1.15,-62.70,-2.27,571,1,0,0
55392,95011.06,541.52,542.30,0.04,-0.86,0.44,-4.66,1.78,1.13,-62.66,-2.29,571,1,0,0
55428,95003.02,541.70,542.30,0.05,-0.86,0.45,-4.82,1.75,1.20,-62.45,-2.68,571,1,0,0
55468,95009.00,542.47,542.30,0.04,-0.86,0.44,-4.69,1.90,0.98,-62.62,-2.23,571,1,0,0
55503,95008.63,541.73,542.30,0.04,-0.86,0.45,-4.59,1.79,1.36,-62.49,-2.29,571,1,0,0
55539,94999.85,542.50,542.30,0.04,-0.86,0.44,-4.65,1.89,1.16,-62.63,-2.59,571,1,0,0
55575,95009.00,541.70,542.30,0.04,-0.86,0.44,-4.48,1.97,1.10,-62.70,-2.49,571,1,0,0
55611,95006.58,541.91,542.30,0.05,-0.86,0.44,-4.59,1.96,1.05,-62.98,-2.75,571,1,0,0
55647,95005.83,541.95,542.30,0.04,-0.86,0.43,-4.64,1.99,1.30,-63.42,-2.67,571,1,0,0
55696,94997.41,542.72,542.30,0.04,-0.86,0.44,-4.67,1.88,1.08,-62.99,-2.35,571,1,0,0
55732,95012.57,541.39,542.29,0.03,-0.86,0.44,-4.66,1.82,1.22,-62.90,-1.92,571,1,0,0
55768,95000.60,541.24,542.29,0.04,-0.86,0.45,-4.63,1.72,1.30,-62.62,-2.28,571,1,0,0
55804,95003.77,542.16,542.29,0.04,-0.86,0.44,-4.77,1.84,1.14,-62.89,-2.42,571,1,0,0
55840,95008.63,542.22,542.29,0.04,-0.86,0.44,-4.48,1.88,1.41,-62.78,-2.50,571,1,0,0
55876,95006.21,541.95,542.29,0.04,-0.86,0.45,-4.71,1.75,1.15,-62.66,-2.07,571,1,0,0
55927,95005.83,541.98,542.29,0.04,-0.86,0.44,-4.91,1.85,1.31,-62.78,-2.59,571,1,0,0
55963,95003.02,541.98,542.29,0.04,-0.85,0.46,-5.39,1.87,1.47,-61.67,-2.32,571,1,0,0
55999,95003.02,542.22,542.29,0.08,-0.84,0.43,-6.71,2.12,1.17,-62.87,-4.57,571,1,0,0
56035,95006.58,541.67,542.28,0.05,-0.85,0.42,-0.24,1.88,0.62,-63.73,-3.25,571,1,0,0
56071,95005.10,542.04,542.28,0.04,-0.83,0.46,-6.31,2.05,1.27,-61.07,-2.70,571,1,0,0
56108,95003.39,542.19,542.28,0.04,-0.87,0.45,-6.70,1.85,1.19,-62.60,-2.17,571,1,0,0
56146,95004.14,542.13,542.28,0.03,-0.89,0.45,-35.08,3.65,-0.17,-63.13,-1.74,571,1,0,0
56183,95003.77,542.22,542.28,0.04,-0.88,0.48,-50.30,3.91,-1.58,-61.28,-2.53,571,1,0,0
56219,95003.39,542.19,542.28,0.03,-0.85,0.33,-48.05,-0.79,3.60,-68.52,-1.61,571,1,0,0
56255,95003.77,542.44,542.28,0.05,-0.87,0.36,-48.29,-0.80,1.72,-67.80,-2.91,571,1,0,0
56291,95001.35,542.37,542.28,0.04,-0.94,0.34,-76.45,-2.89,4.77,-69.88,-2.31,571,1,0,0
56327,95004.87,541.82,542.28,0.04,-0.95,0.27,-93.38,-3.77,5.26,-74.28,-2.61,571,1,0,0
56367,95009.00,541.70,542.28,0.04,-0.94,0.27,-54.47,0.66,3.27,-74.02,-2.51,571,1,0,0
56402,95002.64,542.26,542.28,0.03,-0.97,0.19,-76.35,-1.88,6.85,-79.11,-1.73,571,1,0,0
56439,95010.10,541.60,542.28,0.01,-0.97,0.19,-58.18,1.54,5.98,-79.16,-0.78,571,1,0,0
56475,95003.77,542.19,542.28,0.02,-0.96,0.15,-32.44,3.74,4.32,-81.18,-1.38,571,1,0,0
56511,95003.39,542.19,542.28,0.02,-0.96,0.12,-50.46,2.72,5.26,-82.71,-1.11,571,1,0,0
56547,94999.85,542.68,542.28,0.01,-0.95,0.12,-31.71,6.22,3.67,-83.11,-0.77,571,1,0,0
56587,95003.39,541.95,542.28,0.07,-1.04,0.02,-31.85,8.14,2.66,-88.77,-4.00,571,1,0,0
56623,95008.63,541.73,542.28,0.03,-1.01,0.03,-33.13,5.65,2.20,-88.03,-1.63,571,1,0,0
56658,95004.14,542.13,542.28,-0.01,-1.01,-0.04,-11.69,4.83,0.93,-92.37,0.56,571,1,0,0
56694,95007.30,541.85,542.27,-0.01,-0.99,-0.02,13.31,2.00,0.46,-90.97,0.75,571,1,0,0
56731,95006.96,541.88,542.27,-0.01,-0.99,0.04,26.76,1.18,-0.25,-87.73,0.76,571,1,0,0
56767,95001.69,541.88,542.27,0.04,-0.96,0.10,7.26,1.58,-0.01,-84.07,-2.17,571,1,0,0
56806,95001.35,542.62,542.27,0.03,-0.95,0.06,-17.94,1.95,0.01,-86.29,-1.74,571,1,0,0
56843,94998.17,542.65,542.27,0.03,-0.95,0.07,-21.76,0.08,-1.37,-85.88,-1.98,571,1,0,0
56879,95009.00,541.70,542.27,0.04,-1.05,0.01,-26.99,1.78,0.34,-89.22,-2.43,571,1,0,0
56914,95006.58,541.91,542.27,0.06,-1.00,0.04,-23.58,4.38,0.59,-87.55,-3.43,571,1,0,0
56950,95005.83,541.98,542.27,0.03,-0.99,0.04,-20.83,4.24,0.71,-87.85,-1.57,571,1,0,0
56986,95003.02,542.09,542.27,0.05,-1.00,0.03,-17.61,5.65,1.94,-88.22,-2.75,571,1,0,0
57026,95000.97,542.13,542.27,0.01,-0.98,0.00,-23.48,7.48,2.38,-89.86,-0.70,571,1,0,0
57062,95009.38,541.67,542.27,0.02,-1.00,-0.05,-9.04,6.60,1.47,-92.95,-1.01,571,1,0,0
57098,95000.60,542.19,542.27,-0.03,-1.00,-0.03,-17.11,4.96,1.25,-91.90,1.78,571,1,0,0
57134,95004.50,542.09,542.27,0.01,-0.96,0.01,-23.32,5.64,1.93,-89.66,-0.89,571,1,0,0
57169,95006.58,541.91,542.27,0.03,-0.94,-0.00,-25.19,6.74,0.10,-90.07,-1.72,571,1,0,0
57206,95004.14,542.13,542.26,0.02,-1.02,-0.11,-27.81,2.45,0.89,-96.41,-1.28,571,1,0,0
57246,95003.77,542.22,542.26,0.01,-0.99,-0.01,-17.82,2.00,0.95,-90.74,-0.66,571,1,0,0
57282,95001.69,542.34,542.26,0.01,-0.96,-0.01,-26.90,3.79,0.57,-90.63,-0.68,571,1,0,0
57318,94999.50,541.70,542.26,0.03,-0.94,-0.05,-43.97,3.94,0.73,-93.33,-1.66,571,1,0,0
57354,95006.96,541.88,542.26,0.06,-1.05,-0.11,-29.30,4.22,0.89,-96.28,-3.04,571,1,0,0
57390,95007.30,541.85,542.26,0.05,-0.98,-0.15,-23.09,3.05,1.96,-98.52,-2.64,571,1,0,0
57425,94998.17,542.65,542.26,0.03,-1.03,-0.09,-22.85,3.54,2.09,-94.83,-1.86,571,1,0,0
57465,95004.50,542.09,542.26,0.03,-0.96,-0.16,-28.79,2.33,2.20,-99.30,-1.61,571,1,0,0
57501,95007.30,541.85,542.26,0.03,-0.97,-0.20,-19.01,3.56,2.16,-101.85,-1.66,571,1,0,0
57537,95001.35,541.60,542.26,0.03,-0.93,-0.22,-19.03,3.04,0.94,-103.02,-2.01,571,1,0,0
57574,95006.96,541.88,542.26,0.04,-1.00,-0.21,-26.18,1.74,1.67,-102.06,-2.34,571,1,0,0
57610,95004.50,542.72,542.26,0.03,-0.97,-0.19,-16.69,1.94,1.97,-100.91,-1.80,571,1,0,0
57646,95006.58,541.91,542.26,0.02,-0.99,-0.18,-29.63,4.10,3.23,-100.54,-0.95,571,1,0,0
57686,95004.14,542.13,542.26,0.06,-0.97,-0.21,-24.04,4.94,3.60,-102.31,-3.51,571,1,0,0
57731,95007.67,542.06,542.26,0.00,-1.00,-0.30,-28.08,1.11,3.97,-106.75,-0.16,571,1,0,0
57766,95004.87,542.06,542.26,0.02,-0.94,-0.26,-25.95,0.85,4.39,-105.53,-1.29,571,1,0,0
57802,95008.63,541.73,542.25,0.03,-0.95,-0.24,-15.22,1.37,3.19,-104.02,-1.53,571,1,0,0
57838,95001.35,542.37,542.25,0.02,-0.96,-0.25,-1.19,3.87,2.25,-104.62,-1.09,571,1,0,0
57875,95007.30,541.85,542.25,0.03,-0.99,-0.25,0.25,4.05,2.64,-104.37,-1.42,571,1,0,0
57926,95010.10,541.63,542.25,0.02,-0.97,-0.25,6.89,5.92,3.85,-104.58,-0.87,571,1,0,0
57962,95007.67,541.82,542.25,0.01,-0.99,-0.22,-3.91,5.78,4.81,-102.66,-0.57,571,1,0,0
57998,95010.10,541.60,542.25,0.02,-0.98,-0.24,-13.27,5.62,5.58,-103.80,-0.86,571,1,0,0
58034,95004.87,542.06,542.25,-0.01,-0.93,-0.30,-29.68,3.37,5.27,-107.95,0.55,571,1,0,0
58071,95012.91,541.36,542.24,-0.02,-0.93,-0.30,-28.66,-0.43,3.81,-107.65,1.44,571,1,0,0
58106,95004.87,542.13,542.24,-0.01,-0.90,-0.30,-30.17,-1.24,1.66,-108.41,0.50,571,1,0,0
58140,95002.44,542.27,542.24,0.00,-0.98,-0.36,-38.38,-1.88,0.88,-110.06,-0.24,571,1,0,0
58176,95004.87,542.06,542.24,-0.03,-0.92,-0.32,-52.93,-4.77,-0.03,-109.02,1.61,571,1,0,0
58212,95008.39,541.75,542.24,0.03,-0.98,-0.38,-43.90,-2.73,0.01,-111.22,-1.76,571,1,0,0
58248,95002.79,542.24,542.24,0.01,-0.94,-0.40,-53.21,-1.96,0.66,-112.94,-0.78,571,1,0,0
58284,95002.07,542.24,542.24,-0.02,-0.86,-0.43,-60.44,-2.76,-0.36,-116.82,1.02,571,1,0,0
58323,95005.97,542.03,542.24,0.02,-0.90,-0.45,-86.01,-3.20,-2.89,-116.69,-1.00,571,1,0,0
58360,95005.60,542.00,542.24,0.03,-0.90,-0.48,-65.09,-4.30,-1.56,-118.27,-1.47,571,1,0,0
58396,95005.25,542.03,542.24,0.02,-0.87,-0.51,-71.69,-3.33,-1.21,-120.08,-0.99,571,1,0,0
58432,95004.50,542.09,542.24,0.00,-0.86,-0.60,-41.27,0.95,-0.07,-124.98,-0.05,571,1,0,0
58468,95010.48,541.57,542.24,-0.02,-0.79,-0.42,-31.09,2.82,0.75,-117.76,1.03,571,1,0,0
58504,95002.79,542.24,542.24,-0.02,-0.89,-0.63,-37.93,1.75,0.91,-125.53,0.81,571,1,0,0
58544,95005.97,542.52,542.24,0.02,-0.79,-0.64,-65.26,1.63,0.37,-128.91,-1.10,571,1,0,0
58579,95002.44,542.27,542.24,0.03,-0.76,-0.65,-66.14,-0.88,2.58,-130.54,-1.76,571,1,0,0
58615,95008.77,542.31,542.24,0.01,-0.76,-0.67,-86.43,-1.42,3.50,-131.39,-0.50,571,1,0,0
58652,95002.44,542.27,542.24,0.01,-0.72,-0.72,-89.17,-0.91,5.43,-135.15,-0.40,571,1,0,0
58688,94999.99,542.00,542.24,-0.00,-0.65,-0.76,-69.97,-0.25,4.12,-139.40,0.10,571,1,0,0
58724,94999.64,542.52,542.24,-0.04,-0.63,-0.80,-15.06,2.97,0.45,-141.47,2.21,571,1,0,0
58764,95001.69,542.34,542.24,0.01,-0.65,-0.80,23.48,3.61,-0.08,-141.00,-0.78,571,1,0,0
58800,94997.56,542.70,542.24,-0.00,-0.68,-0.74,4.87,2.80,-0.42,-137.44,0.25,571,1,0,0
58835,95003.17,542.52,542.24,0.01,-0.67,-0.79,-14.23,1.17,-0.60,-139.70,-0.61,571,1,0,0
58871,95003.17,542.21,542.24,0.01,-0.64,-0.76,-25.63,1.11,-0.06,-139.89,-0.57,571,1,0,0
58907,95005.97,541.82,542.24,-0.04,-0.66,-0.83,-23.85,1.73,0.62,-141.43,2.12,571,1,0,0
58944,95005.97,541.96,542.24,0.01,-0.59,-0.77,-52.22,3.04,2.20,-142.41,-0.70,571,1,0,0
58983,94999.64,542.52,542.24,-0.02,-0.64,-0.87,-42.75,2.61,3.34,-143.39,1.13,571,1,0,0
59020,95006.32,541.94,542.24,0.03,-0.55,-0.76,-62.20,4.54,3.21,-144.20,-2.07,571,1,0,0
59056,95007.07,541.96,542.24,0.01,-0.58,-0.90,-60.17,0.36,0.82,-147.40,-0.43,571,1,0,0
59091,95003.17,542.21,542.24,-0.03,-0.52,-0.84,-103.95,-1.65,0.79,-148.48,1.63,571,1,0,0
59127,95005.97,541.72,542.24,-0.21,-0.90,-0.66,-90.49,-11.76,3.28,-126.30,10.83,571,1,0,0
59167,95003.51,542.21,542.24,-0.04,-0.40,-0.94,-67.53,0.30,5.60,-157.03,1.98,571,1,0,0
59203,95002.79,542.24,542.24,-0.02,-0.36,-0.92,-24.65,2.58,3.94,-158.72,1.03,571,1,0,0
59239,94995.47,542.89,542.24,0.00,-0.41,-0.99,-13.37,1.71,2.75,-157.18,-0.10,571,1,0,0
59275,95006.32,541.94,542.24,-0.01,-0.36,-0.96,-19.84,1.02,2.05,-159.42,0.29,571,1,0,0
59312,94999.03,542.58,542.24,-0.01,-0.38,-0.96,-13.74,2.38,2.41,-158.42,0.75,571,1,0,0
59347,94996.22,542.95,542.24,-0.01,-0.34,-0.98,-8.45,2.17,2.11,-160.84,0.30,571,1,0,0
59386,95001.08,541.87,542.24,-0.01,-0.37,-0.97,-5.46,2.26,2.37,-159.00,0.78,571,1,0,0
59423,95003.51,542.18,542.24,-0.02,-0.38,-0.96,-9.23,1.66,1.83,-158.55,1.03,571,1,0,0
59459,95002.44,542.27,542.24,-0.00,-0.36,-1.00,-12.26,2.14,2.03,-160.04,0.11,571,1,0,0
59495,95004.26,542.12,542.24,0.01,-0.36,-0.99,-18.87,1.56,2.46,-160.15,-0.67,571,1,0,0
59531,95004.26,542.12,542.24,-0.01,-0.36,-0.97,-25.90,2.09,3.79,-159.51,0.82,571,1,0,0
59567,95000.36,542.43,542.24,-0.00,-0.35,-1.01,-28.62,1.31,2.86,-161.01,0.22,571,1,0,0
59607,95006.32,542.46,542.24,-0.01,-0.31,-1.01,-40.26,1.50,2.93,-163.00,0.78,571,1,0,0
59642,95008.77,541.72,542.24,-0.01,-0.29,-1.04,-52.80,1.33,3.14,-164.61,0.38,571,1,0,0
59678,94997.91,542.03,542.24,-0.01,-0.27,-1.01,-38.06,-0.51,3.29,-165.26,0.75,571,1,0,0
59714,95009.12,541.69,542.24,-0.02,-0.23,-1.01,-12.77,1.58,1.59,-167.04,1.06,571,1,0,0
59750,95003.17,542.21,542.24,-0.02,-0.24,-1.02,-4.36,1.05,1.53,-166.69,0.87,571,1,0,0
59795,95000.36,542.46,542.24,-0.02,-0.23,-1.02,-1.34,0.60,1.58,-167.05,0.98,571,1,0,0
59835,95006.69,541.90,542.24,-0.06,-0.26,-1.00,-4.62,1.85,1.74,-165.70,3.56,571,1,0,0
59871,95001.08,542.40,542.24,-0.01,-0.25,-0.97,1.21,1.42,1.38,-165.32,0.66,571,1,0,0
59907,94999.64,542.52,542.24,-0.02,-0.24,-1.02,4.71,2.00,1.08,-166.62,0.92,571,1,0,0
59955,94995.10,542.15,542.24,-0.02,-0.26,-1.01,4.97,1.91,0.86,-165.61,0.89,571,1,0,0
59991,95000.36,542.46,542.24,-0.01,-0.27,-1.01,5.01,1.89,1.01,-165.31,0.79,571,1,0,0
60026,95003.51,542.18,542.24,-0.02,-0.27,-1.01,6.89,2.00,0.92,-164.75,1.07,571,1,0,0
60065,95000.36,542.46,542.24,-0.02,-0.28,-1.00,6.77,1.86,1.02,-164.33,1.02,571,1,0,0
60101,95003.51,542.29,542.24,-0.02,-0.29,-1.01,10.77,2.02,1.00,-164.02,1.05,571,1,0,0
60137,95003.89,542.15,542.24,-0.02,-0.31,-1.00,10.60,1.81,0.90,-162.79,0.94,571,1,0,0
60174,95001.46,542.49,542.24,-0.02,-0.32,-1.00,2.77,1.91,0.80,-162.34,0.89,571,1,0,0
60210,95002.21,542.29,542.24,-0.02,-0.31,-0.99,4.62,2.11,1.16,-162.58,0.86,571,1,0,0
60246,94997.91,542.67,542.24,-0.02,-0.32,-1.00,10.83,1.70,0.92,-162.09,0.96,571,1,0,0
60284,95001.83,542.33,542.24,-0.01,-0.33,-1.00,3.73,1.85,1.00,-161.61,0.62,571,1,0,0
60320,95007.07,542.33,542.24,-0.01,-0.33,-0.99,-0.06,2.00,1.10,-161.53,0.60,571,1,0,0
60356,95003.89,542.15,542.24,-0.01,-0.35,-0.99,-2.30,1.79,1.28,-160.65,0.71,571,1,0,0
60392,95001.83,542.08,542.24,-0.01,-0.35,-0.98,-7.55,1.89,1.50,-160.68,0.76,571,1,0,0
60428,95003.89,542.15,542.24,-0.01,-0.34,-0.99,-19.57,1.68,1.53,-161.19,0.42,571,1,0,0
60465,95003.51,542.18,542.24,-0.01,-0.31,-0.99,-19.66,2.05,1.59,-162.55,0.79,571,1,0,0
60504,95001.83,542.33,542.24,-0.02,-0.31,-1.00,-15.89,1.76,1.59,-162.79,0.83,571,1,0,0
60539,95004.64,541.87,542.24,-0.01,-0.30,-0.99,-6.17,2.20,2.20,-163.43,0.46,571,1,0,0
60575,95007.07,541.87,542.24,-0.01,-0.31,-1.00,-1.98,2.22,1.50,-162.79,0.73,571,1,0,0
60611,95009.12,542.43,542.24,-0.01,-0.31,-1.00,-4.40,1.79,1.15,-162.90,0.78,571,1,0,0
60647,95003.51,542.18,542.24,-0.01,-0.31,-1.00,-2.42,1.85,1.40,-162.93,0.70,571,1,0,0
60686,95003.51,542.05,542.24,-0.01,-0.30,-1.00,-0.85,1.88,1.15,-163.31,0.78,571,1,0,0
60722,95002.21,542.29,542.24,-0.01,-0.31,-1.00,0.65,1.92,0.98,-162.58,0.75,571,1,0,0
60758,95001.46,542.12,542.24,-0.02,-0.32,-0.98,-3.03,1.68,1.12,-161.90,0.89,571,1,0,0
60793,95005.02,542.05,542.24,-0.01,-0.32,-0.99,-5.14,1.91,1.08,-162.38,0.50,571,1,0,0
60829,95001.83,542.33,542.24,-0.01,-0.32,-1.00,-3.59,1.73,1.28,-162.36,0.79,571,1,0,0
60864,94996.60,542.79,542.24,-0.01,-0.32,-1.00,-5.28,1.83,1.34,-162.43,0.64,571,1,0,0
60904,95000.13,542.36,542.24,-0.02,-0.32,-1.00,-5.81,1.82,1.17,-162.03,0.91,571,1,0,0
60940,95002.56,542.26,542.24,-0.02,-0.32,-0.99,-10.70,2.03,1.27,-162.16,0.88,571,1,0,0
60977,95008.16,542.26,542.24,-0.01,-0.31,-1.00,-14.98,1.81,1.47,-162.56,0.69,571,1,0,0
61012,95004.26,542.12,542.24,-0.01,-0.29,-1.00,-16.49,1.95,1.41,-163.64,0.71,571,1,0,0
61048,95004.64,542.08,542.24,-0.02,-0.30,-1.00,-24.25,2.14,2.30,-163.31,0.98,571,1,0,0
61085,95005.36,542.02,542.24,-0.02,-0.30,-1.01,-31.85,1.64,2.14,-163.64,1.15,571,1,0,0
61125,95005.36,542.02,542.24,-0.01,-0.25,-1.01,-39.93,1.98,1.88,-166.11,0.36,571,1,0,0
61161,95008.16,541.77,542.24,-0.03,-0.21,-1.03,-31.94,1.80,0.74,-168.31,1.75,571,1,0,0
61197,95005.02,542.15,542.24,-0.02,-0.24,-1.03,-23.74,3.31,1.87,-167.09,1.27,571,1,0,0
61234,95002.56,542.26,542.24,-0.02,-0.20,-1.00,-16.10,2.21,2.71,-168.64,1.20,571,1,0,0
61270,95001.83,542.26,542.24,0.01,-0.21,-1.05,-21.11,2.66,1.89,-168.99,-0.38,571,1,0,0
61305,95000.13,542.48,542.24,-0.01,-0.19,-1.05,-11.98,0.78,1.21,-169.51,0.50,571,1,0,0
61345,95002.56,542.26,542.24,-0.00,-0.19,-1.02,-16.07,0.01,2.33,-169.47,0.19,571,1,0,0
61382,95005.74,541.99,542.24,0.00,-0.20,-1.00,-11.67,1.26,2.02,-168.87,-0.03,571,1,0,0
61418,95008.16,541.77,542.23,-0.01,-0.18,-1.00,-15.50,2.04,1.46,-169.61,0.47,571,1,0,0
61454,95004.64,542.08,542.23,-0.03,-0.19,-0.98,-13.70,3.81,2.20,-169.27,1.77,571,1,0,0
61491,95002.56,542.26,542.23,-0.02,-0.15,-1.08,9.16,3.90,1.91,-171.90,0.83,571,1,0,0
61527,95005.74,541.99,542.23,-0.01,-0.17,-1.05,-2.49,1.48,1.11,-170.60,0.42,571,1,0,0
61566,95002.56,542.26,542.23,-0.01,-0.18,-1.03,-1.05,1.72,1.36,-170.03,0.68,571,1,0,0
61602,95007.82,542.02,542.23,-0.02,-0.19,-1.02,-0.11,1.48,1.14,-169.62,0.93,571,1,0,0
61638,95002.21,542.29,542.23,-0.02,-0.19,-1.04,2.11,1.14,1.53,-169.79,0.90,571,1,0,0
61675,95002.93,541.87,542.23,-0.02,-0.19,-1.03,0.21,1.40,1.34,-169.50,1.20,571,1,0,0
61711,95006.11,541.95,542.23,-0.02,-0.20,-1.03,2.99,0.92,1.49,-168.99,1.16,571,1,0,0
61747,95008.91,541.95,542.23,-0.02,-0.20,-1.02,3.74,0.63,1.46,-168.76,0.86,571,1,0,0
61796,95005.74,541.74,542.23,-0.02,-0.24,-1.03,0.34,1.91,1.48,-166.69,0.99,571,1,0,0
61832,95014.15,541.25,542.23,-0.01,-0.21,-1.02,1.90,1.80,1.05,-168.29,0.74,571,1,0,0
61868,95005.74,541.99,542.22,-0.02,-0.21,-1.01,5.90,1.91,1.00,-168.03,1.10,571,1,0,0
61904,95006.11,541.95,542.22,-0.02,-0.21,-1.01,25.48,2.20,0.63,-168.02,0.93,571,1,0,0
61953,95008.16,541.77,542.22,-0.01,-0.26,-1.01,14.70,2.11,1.16,-165.67,0.78,571,1,0,0
61988,95008.91,541.71,542.22,-0.02,-0.24,-0.99,34.64,2.15,0.21,-166.44,0.97,571,1,0,0
62028,95000.50,542.45,542.22,-0.02,-0.32,-0.99,56.97,2.47,-0.13,-162.22,1.00,571,1,0,0
62064,95000.50,542.23,542.22,-0.02,-0.36,-0.99,33.77,2.56,0.47,-159.84,0.90,571,1,0,0
62101,95000.88,542.41,542.22,-0.02,-0.36,-0.98,24.43,2.38,0.63,-160.17,1.19,571,1,0,0
62137,94998.77,542.41,542.22,-0.01,-0.38,-0.97,25.22,2.49,0.66,-158.88,0.72,571,1,0,0
62173,95003.31,542.20,542.22,-0.02,-0.40,-0.97,16.66,2.16,0.68,-157.72,1.16,571,1,0,0
62209,95000.50,542.45,542.22,-0.02,-0.41,-0.97,5.75,2.04,0.98,-157.29,0.89,571,1,0,0
62248,95000.50,542.45,542.22,-0.01,-0.39,-0.96,5.30,2.19,1.11,-157.65,0.51,571,1,0,0
62285,95000.88,542.45,542.22,-0.01,-0.40,-0.96,15.92,2.29,0.86,-157.55,0.76,571,1,0,0
62321,95001.57,542.35,542.23,-0.01,-0.42,-0.94,19.33,2.36,0.74,-155.86,0.43,571,1,0,0
62357,95003.31,541.64,542.22,-0.01,-0.44,-0.93,18.23,2.37,0.66,-154.91,0.60,571,1,0,0
62393,95003.31,542.20,542.22,-0.01,-0.45,-0.93,19.88,2.34,0.55,-154.27,0.60,571,1,0,0
62433,95009.29,541.67,542.22,-0.01,-0.46,-0.93,19.73,2.43,0.85,-153.71,0.58,571,1,0,0
62469,95004.07,542.38,542.22,-0.01,-0.48,-0.93,20.65,2.45,0.31,-152.83,0.61,571,1,0,0
62505,95003.31,542.20,542.22,-0.01,-0.50,-0.90,25.73,2.54,0.27,-151.31,0.37,571,1,0,0
62541,95006.49,541.92,542.22,-0.01,-0.52,-0.90,23.38,2.57,0.48,-150.21,0.40,571,1,0,0
62577,95006.86,541.89,542.22,-0.01,-0.53,-0.88,13.26,2.55,0.73,-149.04,0.73,571,1,0,0
62613,95004.38,542.10,542.22,-0.01,-0.53,-0.88,12.22,2.37,0.79,-149.04,0.52,571,1,0,0
62653,95004.07,542.13,542.22,-0.01,-0.54,-0.88,11.38,2.41,0.86,-148.18,0.49,571,1,0,0
62689,95000.88,541.99,542.22,-0.01,-0.56,-0.87,7.71,1.92,0.75,-147.42,0.43,571,1,0,0
62725,95006.86,541.89,542.22,-0.01,-0.56,-0.87,-2.13,2.01,1.24,-147.25,0.54,571,1,0,0
62761,95006.49,542.17,542.22,-0.00,-0.55,-0.87,-0.39,1.90,1.07,-147.83,0.14,571,1,0,0
62797,95009.67,541.64,542.22,-0.01,-0.55,-0.87,11.13,2.08,0.86,-147.68,0.44,571,1,0,0
62833,95003.68,542.17,542.22,-0.01,-0.57,-0.86,18.91,2.33,0.40,-146.23,0.34,571,1,0,0
62873,95009.29,541.67,542.22,-0.01,-0.58,-0.85,23.73,2.53,0.35,-145.84,0.66,571,1,0,0
62909,95009.67,541.61,542.21,-0.01,-0.60,-0.84,25.78,2.59,0.40,-144.53,0.41,571,1,0,0
62945,95006.86,541.89,542.21,0.00,-0.62,-0.82,26.05,2.53,0.15,-143.12,-0.03,571,1,0,0
62981,95004.38,541.64,542.21,-0.00,-0.63,-0.81,23.46,2.41,0.34,-142.12,0.14,571,1,0,0
63017,95004.75,542.07,542.21,-0.01,-0.65,-0.80,18.99,2.48,0.43,-140.84,0.49,571,1,0,0
63053,95010.36,541.83,542.21,-0.00,-0.66,-0.79,8.62,2.01,0.74,-140.18,0.23,571,1,0,0
63093,95007.18,541.86,542.21,0.00,-0.66,-0.79,-7.52,1.69,1.39,-139.95,-0.15,571,1,0,0
63129,95004.38,542.10,542.21,-0.00,-0.65,-0.79,-10.69,1.61,1.30,-140.48,0.23,571,1,0,0
63165,95004.75,542.07,542.21,-0.00,-0.65,-0.79,-8.70,1.71,1.56,-140.55,0.08,571,1,0,0
63201,95009.67,542.13,542.21,-0.00,-0.65,-0.79,-6.52,1.79,1.47,-140.62,0.08,571,1,0,0
63237,95009.67,541.64,542.21,-0.00,-0.65,-0.80,-4.07,1.94,1.30,-141.18,0.11,571,1,0,0
63273,95004.38,542.35,542.21,-0.00,-0.64,-0.79,-1.96,1.88,1.18,-140.96,0.08,571,1,0,0
63312,95006.49,542.17,542.21,-0.01,-0.65,-0.79,-0.03,1.93,0.92,-140.81,0.31,571,1,0,0
63349,95010.36,541.58,542.20,-0.01,-0.65,-0.79,1.20,1.88,1.18,-140.53,0.49,571,1,0,0
63385,95003.68,542.17,542.20,-0.01,-0.65,-0.80,1.72,1.92,1.17,-140.73,0.48,571,1,0,0
63421,95001.57,542.35,542.20,-0.00,-0.66,-0.78,2.50,1.95,0.87,-139.95,0.19,571,1,0,0
63457,95001.57,542.35,542.21,-0.01,-0.66,-0.78,3.25,2.09,1.08,-139.75,0.30,571,1,0,0
63493,95010.74,542.13,542.20,-0.00,-0.67,-0.77,4.10,2.05,0.89,-139.26,0.21,571,1,0,0
63533,95004.38,542.35,542.21,0.00,-0.68,-0.77,6.25,2.07,0.98,-138.70,-0.01,571,1,0,0
63568,95012.78,541.37,542.20,-0.01,-0.68,-0.77,8.34,2.06,0.66,-138.71,0.33,571,1,0,0
63604,95009.67,541.64,542.20,-0.01,-0.69,-0.76,11.28,2.51,0.72,-137.90,0.29,571,1,0,0
63640,95005.13,542.04,542.20,-0.00,-0.68,-0.76,14.74,2.11,0.66,-138.17,0.12,571,1,0,0
63676,95007.56,541.83,542.20,-0.00,-0.70,-0.74,18.46,2.42,0.55,-136.72,0.10,571,1,0,0
63713,95002.70,542.01,542.20,0.00,-0.72,-0.73,11.40,2.30,0.66,-135.43,-0.07,571,1,0,0
63752,95004.75,542.01,542.20,-0.00,-0.72,-0.73,-6.55,1.91,1.21,-135.49,0.08,571,1,0,0
63789,95005.13,542.04,542.20,0.01,-0.71,-0.73,-5.74,1.95,1.14,-135.97,-0.34,571,1,0,0
63834,95003.08,542.13,542.20,-0.00,-0.71,-0.73,-1.88,1.91,1.16,-135.65,0.10,571,1,0,0
63869,95004.38,542.10,542.20,-0.00,-0.71,-0.73,0.39,2.05,1.07,-135.94,0.10,571,1,0,0
63918,95004.75,542.07,542.20,0.00,-0.72,-0.73,0.93,2.05,1.02,-135.31,-0.15,571,1,0,0
63953,95007.18,541.86,542.20,-0.00,-0.72,-0.72,0.49,1.89,1.08,-135.08,0.12,571,1,0,0
63993,95005.88,541.97,542.20,-0.00,-0.72,-0.71,-0.86,1.95,0.91,-134.59,0.10,571,1,0,0
64029,95004.75,542.07,542.20,0.00,-0.73,-0.73,-2.34,1.90,1.20,-135.17,-0.07,571,1,0,0
64065,95007.18,541.86,542.19,-0.00,-0.73,-0.72,-3.54,1.78,1.33,-134.77,0.27,571,1,0,0
64101,95008.31,542.25,542.19,-0.00,-0.72,-0.71,-4.76,1.93,1.13,-134.56,0.04,571,1,0,0
64137,95013.92,541.27,542.19,-0.00,-0.73,-0.72,-5.49,2.04,1.36,-134.58,0.10,571,1,0,0
64173,94999.14,542.56,542.19,-0.00,-0.72,-0.72,-5.62,1.95,1.25,-134.80,0.15,571,1,0,0
64212,95005.88,541.97,542.19,0.00,-0.73,-0.72,-5.24,1.82,1.41,-134.62,-0.12,571,1,0,0
64248,95001.95,542.19,542.19,0.00,-0.73,-0.72,-4.92,1.78,1.36,-134.86,0.00,571,1,0,0
64284,95003.42,542.19,542.19,0.01,-0.72,-0.72,-4.20,1.91,1.34,-134.87,-0.41,571,1,0,0
64321,94997.09,541.83,542.19,0.00,-0.72,-0.73,-3.51,1.91,1.21,-135.08,-0.15,571,1,0,0
64357,95007.93,541.79,542.19,0.00,-0.72,-0.71,-3.67,2.08,1.21,-134.61,-0.22,571,1,0,0
64393,95005.50,542.50,542.19,0.00,-0.73,-0.72,-3.96,1.90,1.16,-134.68,-0.27,571,1,0,0
64433,95008.68,541.73,542.19,0.00,-0.72,-0.72,-4.18,2.01,1.16,-134.79,-0.18,571,1,0,0
64468,95003.42,542.19,542.19,0.01,-0.73,-0.72,-4.47,1.74,1.33,-134.54,-0.36,571,1,0,0
64504,95005.88,541.97,542.19,0.00,-0.73,-0.72,-4.84,1.78,1.40,-134.78,-0.05,571,1,0,0
64540,95007.93,541.79,542.19,0.00,-0.73,-0.72,-4.88,1.72,1.28,-134.42,-0.21,571,1,0,0
64576,94999.52,542.53,542.19,0.00,-0.72,-0.72,-4.73,1.92,0.99,-134.73,-0.23,571,1,0,0
64616,95000.27,542.46,542.19,-0.00,-0.73,-0.71,-4.58,1.80,1.45,-134.40,0.11,571,1,0,0
64652,95004.75,541.58,542.19,-0.00,-0.72,-0.72,-4.46,2.12,1.14,-134.98,0.14,571,1,0,0
64688,95005.50,542.01,542.19,0.00,-0.73,-0.72,-4.14,1.74,1.27,-134.49,-0.04,571,1,0,0
64723,95004.17,542.12,542.19,-0.00,-0.73,-0.72,-4.33,1.98,1.23,-134.74,0.11,571,1,0,0
64760,95006.22,541.97,542.19,0.00,-0.73,-0.72,-4.29,1.83,1.06,-134.87,-0.19,571,1,0,0
64796,95006.22,541.94,542.19,-0.01,-0.72,-0.72,-4.46,1.86,1.15,-134.71,0.49,571,1,0,0
64835,95000.27,542.46,542.19,0.00,-0.73,-0.72,-4.46,1.88,1.31,-134.62,-0.08,571,1,0,0
64872,95006.22,542.28,542.19,0.00,-0.73,-0.71,-4.45,1.93,1.01,-134.18,-0.10,571,1,0,0
64908,95006.22,541.94,542.19,0.00,-0.73,-0.72,-4.54,1.96,1.19,-134.53,-0.22,571,1,0,0
64944,95006.22,541.94,542.19,0.00,-0.73,-0.72,-4.43,1.85,1.28,-134.58,-0.27,571,1,0,0
64979,95012.21,541.42,542.18,0.00,-0.72,-0.72,-4.49,1.96,1.22,-134.72,-0.10,571,1,0,0
65015,95000.99,542.40,542.18,0.00,-0.72,-0.71,-4.65,1.85,1.24,-134.56,-0.03,571,1,0,0
65055,95004.17,542.12,542.18,0.01,-0.72,-0.72,-4.43,1.93,1.31,-134.66,-0.30,571,1,0,0
65091,95009.03,541.91,542.18,-0.00,-0.72,-0.72,-4.55,1.95,1.27,-134.83,0.04,571,1,0,0
65127,95009.03,541.70,542.18,0.00,-0.72,-0.72,-4.65,1.85,1.34,-134.97,-0.08,571,1,0,0
65163,95006.60,541.91,542.18,-0.00,-0.73,-0.72,-4.57,1.97,1.39,-134.53,0.03,571,1,0,0
65199,95001.36,542.37,542.18,0.00,-0.73,-0.72,-4.65,1.86,1.29,-134.70,-0.22,571,1,0,0
65235,95001.36,542.37,542.18,0.01,-0.73,-0.71,-4.65,1.89,1.17,-134.32,-0.37,571,1,0,0
65274,95001.36,542.37,542.18,0.00,-0.72,-0.72,-4.62,1.95,1.27,-134.79,-0.21,571,1,0,0
65310,95003.80,541.91,542.18,-0.00,-0.73,-0.71,-4.57,1.90,1.20,-134.36,0.18,571,1,0,0
65347,95001.36,542.37,542.18,-0.00,-0.73,-0.72,-4.46,1.95,1.22,-134.70,0.05,571,1,0,0
65383,94995.76,542.12,542.18,0.00,-0.73,-0.72,-4.35,2.00,1.31,-134.57,-0.18,571,1,0,0
65419,95001.36,542.37,542.18,-0.00,-0.73,-0.71,-4.45,1.72,1.15,-134.34,0.08,571,1,0,0
65455,95000.61,542.44,542.18,-0.00,-0.73,-0.71,-4.54,1.91,1.20,-134.51,0.23,571,1,0,0
65495,95000.99,542.40,542.18,-0.00,-0.73,-0.72,-4.49,2.00,1.26,-134.48,0.08,571,1,0,0
65530,95007.71,542.27,542.18,0.00,-0.73,-0.71,-4.59,1.67,1.14,-134.43,-0.01,571,1,0,0
65566,95010.50,541.57,542.18,-0.00,-0.73,-0.71,-4.62,2.01,1.17,-134.23,0.25,571,1,0,0
65602,95004.55,542.15,542.18,0.00,-0.73,-0.72,-4.46,1.92,1.19,-134.62,-0.07,571,1,0,0
65638,95010.16,541.60,542.18,-0.00,-0.73,-0.72,-4.59,1.71,1.30,-134.54,0.03,571,1,0,0
65674,94998.94,542.58,542.18,-0.01,-0.73,-0.71,-4.59,1.96,1.27,-134.29,0.52,571,1,0,0
65714,95002.44,542.27,542.18,-0.00,-0.73,-0.72,-4.55,1.92,1.21,-134.72,0.18,571,1,0,0
65750,95006.98,541.68,542.18,0.01,-0.72,-0.72,-4.62,1.75,1.22,-134.71,-0.53,571,1,0,0
65785,95004.89,542.06,542.18,0.00,-0.73,-0.71,-4.55,1.80,1.36,-134.19,-0.25,571,1,0,0
65821,95005.99,542.55,542.18,0.01,-0.73,-0.71,-4.59,1.80,1.21,-134.52,-0.69,571,1,0,0
65866,95006.98,541.88,542.18,-0.00,-0.73,-0.72,-4.62,1.90,1.32,-134.70,0.05,571,1,0,0
65914,95005.99,541.96,542.18,0.00,-0.73,-0.71,-4.68,1.84,1.17,-134.49,-0.03,571,1,0,0
65954,95000.61,542.44,542.18,-0.00,-0.73,-0.72,-4.49,1.94,1.40,-134.25,0.16,571,1,0,0
65990,95004.17,542.12,542.18,-0.00,-0.73,-0.72,-4.59,1.88,1.34,-134.63,0.05,571,1,0,0
66026,95007.71,541.81,542.18,-0.00,-0.73,-0.72,-4.45,1.88,1.21,-134.77,0.14,571,1,0,0
66062,95005.61,542.00,542.18,-0.00,-0.73,-0.71,-4.56,1.89,1.35,-134.20,0.03,571,1,0,0
66099,94999.63,542.52,542.18,-0.00,-0.73,-0.72,-4.82,1.82,1.02,-134.63,0.14,571,1,0,0
66135,95006.72,541.90,542.18,0.00,-0.73,-0.72,-4.52,2.07,1.27,-134.38,-0.08,571,1,0,0
66173,95001.36,542.37,542.18,0.00,-0.72,-0.71,-4.39,2.12,1.35,-134.73,-0.17,571,1,0,0
66210,95002.09,541.81,542.18,0.00,-0.73,-0.71,-4.70,1.97,1.14,-133.97,-0.07,571,1,0,0
66246,95010.50,541.57,542.18,0.01,-0.73,-0.71,-4.60,1.90,1.21,-134.50,-0.29,571,1,0,0
66282,95002.44,542.27,542.18,0.00,-0.73,-0.71,-4.59,1.79,1.26,-134.37,-0.07,571,1,0,0
66318,95006.72,541.96,542.18,-0.00,-0.73,-0.72,-4.50,1.91,1.21,-134.44,0.01,571,1,0,0
66354,95003.57,542.18,542.18,0.01,-0.73,-0.71,-4.58,1.85,1.24,-134.34,-0.34,571,1,0,0
66387,95003.19,542.21,542.18,0.00,-0.73,-0.71,-4.72,1.62,1.14,-134.13,-0.07,571,1,0,0
66423,95002.44,542.21,542.18,0.00,-0.73,-0.72,-4.65,1.95,1.24,-134.58,0.00,571,1,0,0
66459,95005.61,542.00,542.18,0.00,-0.72,-0.71,-4.71,2.01,1.13,-134.42,-0.04,571,1,0,0
66495,95008.80,542.15,542.18,0.00,-0.73,-0.71,-4.62,2.10,1.14,-134.24,-0.19,571,1,0,0
66531,95009.17,541.68,542.18,-0.00,-0.73,-0.71,-4.65,1.83,1.23,-134.34,0.23,571,1,0,0
66570,95009.52,541.65,542.17,-0.00,-0.73,-0.71,-4.60,1.77,1.29,-134.23,0.03,571,1,0,0
66607,95000.38,542.46,542.17,0.00,-0.73,-0.71,-4.62,1.86,1.18,-134.41,-0.05,571,1,0,0
66642,95008.42,541.78,542.17,-0.00,-0.72,-0.71,-4.57,1.91,1.33,-134.56,0.21,571,1,0,0
66678,95002.44,542.27,542.17,0.00,-0.73,-0.71,-4.49,1.89,1.07,-134.11,-0.15,571,1,0,0
66714,95009.17,542.18,542.17,0.00,-0.73,-0.72,-4.54,1.85,1.25,-134.63,-0.01,571,1,0,0
66750,95003.91,542.15,542.17,0.00,-0.73,-0.71,-4.57,1.84,1.28,-134.25,-0.01,571,1,0,0
66789,94998.67,542.61,542.18,-0.00,-0.73,-0.71,-4.53,1.80,1.37,-134.18,0.12,571,1,0,0
66825,95005.24,542.03,542.17,0.00,-0.73,-0.71,-4.48,1.84,1.07,-134.22,-0.01,571,1,0,0
66862,94998.94,542.42,542.18,0.01,-0.73,-0.71,-4.51,1.96,1.08,-134.51,-0.45,571,1,0,0
66897,95009.52,541.65,542.17,-0.00,-0.73,-0.71,-4.65,1.88,1.20,-134.05,0.25,571,1,0,0
66933,95003.19,542.18,542.17,0.00,-0.73,-0.71,-4.76,1.90,1.25,-133.95,-0.23,571,1,0,0
66969,95008.80,541.72,542.17,0.00,-0.73,-0.71,-4.55,1.80,1.24,-134.36,-0.22,571,1,0,0
67008,95002.44,542.27,542.17,0.00,-0.73,-0.72,-4.72,1.90,1.18,-134.60,0.00,571,1,0,0
67044,94997.58,542.70,542.17,-0.00,-0.73,-0.71,-4.65,1.72,1.12,-134.26,0.26,571,1,0,0
67080,95003.57,542.70,542.18,0.00,-0.73,-0.71,-4.58,1.84,1.16,-134.31,0.00,571,1,0,0
67116,95009.17,541.68,542.17,-0.00,-0.73,-0.72,-4.55,1.80,1.31,-134.83,0.14,571,1,0,0
67151,95002.82,542.24,542.17,0.00,-0.73,-0.71,-4.68,1.77,1.14,-134.47,0.00,571,1,0,0
67187,95011.98,541.44,542.17,0.00,-0.74,-0.72,-4.59,1.88,1.19,-134.22,-0.14,571,1,0,0
67227,95007.10,541.87,542.17,-0.01,-0.73,-0.71,-4.55,1.80,1.15,-134.30,0.41,571,1,0,0
67263,95003.57,542.18,542.17,-0.01,-0.72,-0.71,-4.58,1.79,1.25,-134.40,0.39,571,1,0,0
67299,95006.72,542.11,542.17,-0.00,-0.73,-0.72,-4.72,2.02,1.09,-134.37,0.23,571,1,0,0
67335,95005.03,542.05,542.17,-0.01,-0.73,-0.72,-4.65,1.94,1.27,-134.51,0.29,571,1,0,0
67371,95004.28,542.11,542.17,0.00,-0.73,-0.71,-4.54,1.90,1.09,-133.95,-0.18,571,1,0,0
67406,95003.57,542.18,542.17,-0.00,-0.73,-0.71,-4.45,1.89,1.05,-134.18,0.11,571,1,0,0
67445,95004.28,542.15,542.17,0.00,-0.73,-0.72,-4.68,1.66,1.25,-134.60,-0.14,571,1,0,0
67481,95002.82,542.24,542.17,-0.00,-0.73,-0.71,-4.62,1.97,1.21,-134.40,0.05,571,1,0,0
67517,95003.91,542.21,542.17,-0.00,-0.74,-0.72,-4.57,1.77,1.21,-134.09,0.19,571,1,0,0
67553,95002.82,542.24,542.17,0.01,-0.73,-0.71,-4.70,1.98,1.16,-134.25,-0.43,571,1,0,0
67589,95001.48,542.36,542.17,-0.00,-0.73,-0.71,-4.70,1.81,1.18,-134.34,0.22,571,1,0,0
67624,95009.89,541.65,542.17,-0.00,-0.73,-0.71,-4.47,1.95,1.21,-134.23,0.12,571,1,0,0
67750,95007.85,541.80,542.17,0.00,-0.73,-0.72,-4.69,1.91,1.21,-134.53,-0.23,571,1,0,0
67786,95009.89,541.59,542.17,-0.00,-0.73,-0.71,-4.62,1.74,1.19,-134.22,0.23,571,1,0,0
67822,95005.99,541.96,542.17,0.01,-0.73,-0.72,-4.67,1.97,1.05,-134.47,-0.40,571,1,0,0
67858,95003.57,542.08,542.17,0.00,-0.73,-0.71,-4.70,1.88,1.26,-134.36,-0.16,571,1,0,0
67894,95001.86,542.32,542.17,-0.00,-0.73,-0.72,-4.58,1.97,1.10,-134.33,0.04,571,1,0,0
67930,95007.47,541.83,542.17,0.00,-0.73,-0.71,-4.49,1.75,1.05,-134.43,-0.14,571,1,0,0
67991,95004.28,542.11,542.17,-0.01,-0.74,-0.71,-4.66,1.94,1.05,-133.92,0.29,571,1,0,0
68027,94995.88,542.85,542.17,0.00,-0.73,-0.71,-4.71,1.98,1.20,-134.41,0.00,571,1,0,0
68063,95001.10,542.39,542.17,-0.00,-0.73,-0.71,-4.67,1.94,1.17,-134.07,0.03,571,1,0,0
68100,95004.66,542.08,542.17,-0.01,-0.74,-0.71,-4.54,1.85,1.24,-133.91,0.30,571,1,0,0
68135,95005.03,542.15,542.17,-0.00,-0.73,-0.71,-4.57,1.84,1.39,-134.49,0.03,571,1,0,0
68171,94996.25,542.82,542.17,-0.01,-0.74,-0.71,-4.62,1.91,1.08,-134.00,0.30,571,1,0,0
68211,94999.42,542.54,542.17,-0.00,-0.73,-0.71,-4.59,1.85,1.37,-134.05,0.14,571,1,0,0
68247,95005.76,542.32,542.17,0.00,-0.73,-0.71,-4.77,1.79,1.46,-134.33,-0.07,571,1,0,0
68284,95004.28,542.11,542.17,0.00,-0.74,-0.71,-4.58,1.93,1.33,-133.95,-0.14,571,1,0,0
68320,94997.58,542.70,542.17,0.00,-0.73,-0.71,-4.59,1.89,1.15,-134.24,-0.16,571,1,0,0
68356,95000.15,542.47,542.17,0.00,-0.73,-0.72,-4.67,1.85,1.18,-134.33,0.00,571,1,0,0
68391,95004.28,542.11,542.17,-0.00,-0.73,-0.71,-4.58,2.04,1.28,-134.22,0.01,571,1,0,0
68431,95005.03,542.05,542.17,0.00,-0.73,-0.71,-4.62,1.63,1.24,-134.19,0.00,571,1,0,0
68467,95001.86,542.08,542.17,0.00,-0.74,-0.71,-4.59,1.79,1.12,-133.80,-0.19,571,1,0,0
68504,95003.19,542.21,542.17,0.00,-0.73,-0.71,-4.58,1.72,1.27,-134.19,-0.08,571,1,0,0
68540,94999.05,542.64,542.17,-0.00,-0.73,-0.72,-4.72,1.91,1.17,-134.30,0.26,571,1,0,0
68576,94999.42,542.54,542.18,0.01,-0.73,-0.71,-4.62,1.82,1.34,-134.29,-0.34,571,1,0,0
68616,95002.24,542.29,542.18,0.00,-0.73,-0.71,-4.63,1.87,1.14,-134.13,-0.15,571,1,0,0
68652,94999.05,542.57,542.18,0.00,-0.73,-0.71,-4.59,1.91,1.46,-134.26,-0.08,571,1,0,0
68688,95007.85,541.80,542.18,-0.00,-0.73,-0.72,-4.55,1.73,1.23,-134.49,0.14,571,1,0,0
68724,95002.96,542.23,542.18,0.00,-0.73,-0.72,-4.71,1.85,1.23,-134.60,-0.03,571,1,0,0
68760,95002.61,542.29,542.18,0.00,-0.73,-0.71,-4.84,2.04,1.34,-133.98,-0.04,571,1,0,0
68797,95002.61,542.26,542.18,-0.00,-0.73,-0.71,-4.64,1.88,1.34,-134.29,0.22,571,1,0,0
68836,95002.24,542.29,542.18,-0.00,-0.74,-0.70,-4.57,2.01,1.18,-133.80,0.08,571,1,0,0
68873,95005.41,542.01,542.18,0.01,-0.73,-0.71,-4.55,1.90,1.26,-134.08,-0.41,571,1,0,0
68909,94999.80,542.51,542.18,0.01,-0.73,-0.71,-4.52,1.95,1.18,-134.09,-0.37,571,1,0,0
68944,95001.86,542.32,542.18,-0.00,-0.73,-0.71,-4.59,1.80,1.09,-134.10,0.14,571,1,0,0
68980,95000.53,542.44,542.18,0.00,-0.73,-0.71,-4.68,1.82,1.34,-134.20,-0.04,571,1,0,0
69017,95005.41,542.01,542.18,0.00,-0.73,-0.72,-4.80,1.74,1.34,-134.67,-0.11,571,1,0,0
69057,94999.80,542.51,542.18,-0.00,-0.73,-0.72,-4.81,1.94,1.15,-134.38,0.11,571,1,0,0
69093,95002.61,541.92,542.18,-0.00,-0.73,-0.71,-4.60,1.67,1.39,-134.42,0.16,571,1,0,0
69129,95005.41,542.01,542.18,-0.00,-0.73,-0.71,-4.55,1.91,1.29,-134.39,0.21,571,1,0,0
69165,95008.22,542.44,542.18,0.00,-0.73,-0.72,-4.59,1.80,1.27,-134.45,-0.07,571,1,0,0
69201,94999.80,542.51,542.18,-0.00,-0.74,-0.71,-4.67,1.79,1.08,-134.00,0.03,571,1,0,0
69237,94999.80,542.01,542.18,0.00,-0.73,-0.71,-4.63,1.88,1.18,-134.27,-0.10,571,1,0,0
69277,95000.91,542.41,542.18,0.00,-0.73,-0.71,-4.81,1.97,1.24,-133.94,0.00,571,1,0,0
69313,95001.25,542.38,542.18,0.00,-0.73,-0.72,-4.62,1.95,1.32,-134.31,-0.03,571,1,0,0
69349,95000.15,542.47,542.18,-0.00,-0.73,-0.71,-4.69,1.85,1.25,-133.85,0.11,571,1,0,0
69385,95010.64,541.56,542.18,0.00,-0.72,-0.72,-4.65,1.69,1.42,-134.87,-0.08,571,1,0,0
69422,95002.96,542.23,542.18,-0.00,-0.74,-0.71,-4.55,1.80,1.11,-133.89,0.11,571,1,0,0
69457,95006.51,542.01,542.18,-0.00,-0.73,-0.71,-4.50,1.71,1.24,-134.23,0.14,571,1,0,0
69497,95011.02,542.72,542.18,-0.00,-0.74,-0.72,-4.62,1.92,1.11,-134.32,0.25,571,1,0,0
69533,94998.10,542.66,542.18,-0.00,-0.73,-0.71,-4.71,1.78,1.26,-134.13,0.05,571,1,0,0
69569,95000.53,542.44,542.18,-0.00,-0.73,-0.72,-4.77,1.76,1.19,-134.41,0.15,571,1,0,0
69606,95003.33,542.20,542.18,0.00,-0.74,-0.71,-4.76,1.85,1.06,-133.90,-0.22,571,1,0,0
69642,95006.51,541.92,542.18,0.00,-0.73,-0.71,-4.79,1.68,1.09,-134.00,-0.16,571,1,0,0
69678,95006.86,541.98,542.18,0.00,-0.73,-0.71,-4.63,1.82,1.09,-134.30,-0.10,571,1,0,0
69718,95008.94,542.87,542.18,0.00,-0.73,-0.72,-4.52,1.93,1.08,-134.55,0.00,571,1,0,0
69753,95010.03,541.61,542.18,0.00,-0.73,-0.71,-4.48,1.79,1.18,-134.12,-0.10,571,1,0,0
69789,95006.86,541.92,542.18,-0.00,-0.73,-0.71,-4.62,2.01,1.27,-134.38,0.04,571,1,0,0
69825,95009.66,541.64,542.18,0.01,-0.73,-0.71,-4.76,1.87,1.15,-134.13,-0.34,571,1,0,0
69862,95007.24,541.85,542.18,-0.00,-0.73,-0.71,-4.65,1.76,1.24,-134.30,0.28,571,1,0,0
69898,95000.53,542.44,542.18,-0.00,-0.74,-0.71,-4.78,1.93,1.43,-133.81,0.05,571,1,0,0
69950,95004.42,542.10,542.18,-0.00,-0.73,-0.71,-4.65,1.82,1.15,-134.32,0.25,571,1,0,0
69995,95006.51,541.92,542.18,0.00,-0.73,-0.72,-4.65,1.84,1.23,-134.40,-0.15,571,1,0,0
70031,95006.86,541.89,542.18,-0.00,-0.73,-0.71,-4.68,1.90,1.27,-134.11,0.06,571,1,0,0
70068,95009.66,541.64,542.18,0.00,-0.73,-0.70,-4.59,1.92,1.21,-133.98,-0.07,571,1,0,0
70104,95008.94,541.71,542.17,0.00,-0.73,-0.70,-4.65,2.01,1.19,-133.77,-0.06,571,1,0,0
70139,95001.63,542.44,542.18,-0.00,-0.74,-0.71,-4.56,1.94,1.25,-134.04,0.08,571,1,0,0
70179,95004.42,542.56,542.18,0.00,-0.74,-0.71,-4.71,1.69,1.26,-134.02,-0.03,571,1,0,0
70215,95010.03,541.61,542.18,0.01,-0.73,-0.70,-4.66,1.93,1.16,-133.97,-0.30,571,1,0,0
70251,95007.24,541.85,542.17,0.00,-0.73,-0.71,-4.62,1.83,1.32,-133.91,-0.11,571,1,0,0
70288,95006.51,541.92,542.17,0.00,-0.73,-0.71,-4.63,1.85,1.24,-134.03,-0.22,571,1,0,0
70324,95003.10,542.22,542.17,0.00,-0.73,-0.71,-4.67,2.04,1.30,-134.13,-0.15,571,1,0,0
70360,95008.71,541.72,542.17,-0.00,-0.73,-0.71,-4.90,1.97,1.23,-134.12,0.11,571,1,0,0
70400,95004.05,542.07,542.17,-0.00,-0.73,-0.71,-4.65,1.87,1.37,-134.01,0.14,571,1,0,0
70435,95005.90,541.97,542.17,0.01,-0.73,-0.70,-4.65,1.83,1.12,-133.84,-0.35,571,1,0,0
70471,95004.77,541.85,542.17,-0.01,-0.73,-0.72,-4.62,1.92,1.24,-134.40,0.31,571,1,0,0
70507,95007.24,541.85,542.17,-0.00,-0.74,-0.70,-4.65,1.91,1.27,-133.63,0.18,571,1,0,0
70544,95002.72,542.00,542.17,0.00,-0.73,-0.71,-4.67,1.82,1.01,-133.97,0.00,571,1,0,0
70583,95002.72,542.25,542.17,-0.01,-0.74,-0.71,-4.62,1.80,1.04,-133.94,0.38,571,1,0,0
70620,95005.90,541.97,542.17,-0.00,-0.73,-0.71,-4.58,1.82,1.14,-134.21,0.14,571,1,0,0
70656,95005.53,542.00,542.17,0.00,-0.73,-0.70,-4.64,1.97,1.20,-133.86,-0.03,571,1,0,0
70691,95005.90,542.25,542.17,-0.00,-0.74,-0.71,-4.75,1.86,1.00,-133.93,0.22,571,1,0,0
70727,95006.28,541.94,542.17,-0.00,-0.73,-0.71,-4.61,2.04,1.34,-134.11,0.19,571,1,0,0
70763,94997.49,541.79,542.17,0.00,-0.73,-0.71,-4.78,1.75,1.16,-133.87,-0.07,571,1,0,0
70803,95005.53,542.00,542.17,0.00,-0.73,-0.70,-4.57,1.89,1.47,-133.78,-0.01,571,1,0,0
70839,94997.11,542.74,542.17,0.01,-0.73,-0.71,-4.55,1.72,1.27,-134.10,-0.38,571,1,0,0
70876,95005.15,542.04,542.17,0.00,-0.73,-0.71,-4.58,1.91,1.11,-134.01,-0.15,571,1,0,0
70912,95002.35,542.28,542.17,0.00,-0.73,-0.71,-4.68,1.82,1.21,-134.02,-0.19,571,1,0,0
70947,95003.10,542.22,542.17,0.00,-0.73,-0.71,-4.71,1.85,1.37,-134.27,-0.04,571,1,0,0
70983,95002.35,541.58,542.17,0.00,-0.73,-0.70,-4.68,1.86,1.04,-133.89,-0.15,571,1,0,0
71023,95006.28,542.25,542.17,0.00,-0.74,-0.70,-4.61,1.85,1.08,-133.67,-0.10,571,1,0,0
71059,95008.71,541.72,542.17,0.00,-0.73,-0.71,-4.59,1.81,1.35,-134.08,-0.11,571,1,0,0
71095,95002.72,541.76,542.16,0.00,-0.73,-0.71,-4.54,1.82,1.20,-134.12,-0.04,571,1,0,0
71132,95011.51,541.48,542.16,-0.00,-0.73,-0.71,-4.56,1.81,1.17,-133.88,0.05,571,1,0,0
71168,94997.86,542.68,542.16,0.00,-0.73,-0.71,-4.73,1.86,1.14,-134.10,-0.15,571,1,0,0
71203,95007.00,541.91,542.16,0.00,-0.73,-0.71,-4.68,1.87,1.05,-134.01,-0.04,571,1,0,0
71243,95003.47,541.97,542.16,-0.00,-0.73,-0.71,-4.73,1.98,1.05,-134.06,0.16,571,1,0,0
71279,95006.28,541.94,542.16,-0.00,-0.73,-0.71,-4.84,1.80,1.21,-134.21,0.03,571,1,0,0
71315,95014.32,541.97,542.16,0.00,-0.73,-0.71,-4.76,2.04,1.19,-134.17,-0.11,571,1,0,0
71351,95011.89,541.45,542.16,0.00,-0.73,-0.70,-4.60,1.77,1.18,-133.84,-0.21,571,1,0,0
71387,95011.89,541.45,542.16,0.00,-0.74,-0.71,-4.55,1.82,1.10,-134.03,-0.15,571,1,0,0
71422,95006.28,541.94,542.16,-0.00,-0.73,-0.71,-4.56,1.85,1.21,-133.93,0.21,571,1,0,0
71462,95011.89,541.45,542.16,0.00,-0.73,-0.72,-4.62,1.85,1.10,-134.36,-0.19,571,1,0,0
71498,95005.90,541.97,542.15,0.00,-0.74,-0.71,-4.57,1.61,1.23,-133.94,-0.10,571,1,0,0
71535,94996.36,542.18,542.15,0.01,-0.73,-0.70,-4.80,1.94,1.08,-133.89,-0.29,571,1,0,0
71571,95007.72,541.81,542.15,0.00,-0.73,-0.71,-4.68,1.77,1.29,-134.48,-0.15,571,1,0,0
71607,95008.71,541.97,542.15,0.01,-0.74,-0.71,-4.77,1.79,1.19,-134.03,-0.29,571,1,0,0
71643,95011.51,541.48,542.15,0.00,-0.74,-0.71,-4.77,1.94,1.21,-133.76,-0.01,571,1,0,0
71683,95009.80,541.63,542.15,-0.00,-0.74,-0.71,-4.57,1.86,1.24,-133.94,0.08,571,1,0,0
71718,95003.82,542.15,542.15,0.00,-0.74,-0.71,-4.51,1.81,1.14,-134.04,-0.12,571,1,0,0
71754,95008.33,541.72,542.15,-0.00,-0.73,-0.71,-4.59,1.88,1.11,-134.34,0.01,571,1,0,0
71790,95009.08,541.69,542.15,0.00,-0.73,-0.71,-4.64,1.83,1.08,-134.01,-0.21,571,1,0,0
71826,95009.08,541.69,542.15,-0.00,-0.74,-0.71,-4.66,1.89,1.10,-133.86,0.05,571,1,0,0
71862,95009.80,541.63,542.14,0.00,-0.74,-0.71,-4.75,1.85,1.15,-133.95,-0.05,571,1,0,0
71915,95003.82,541.91,542.14,-0.00,-0.73,-0.71,-4.75,1.78,1.25,-134.14,0.03,571,1,0,0
71951,95003.47,542.18,542.14,-0.00,-0.73,-0.70,-4.67,1.89,1.24,-133.86,0.22,571,1,0,0
71987,95009.08,541.69,542.14,-0.00,-0.73,-0.71,-4.76,1.95,1.30,-134.16,0.11,571,1,0,0
72032,95012.61,541.38,542.14,0.00,-0.74,-0.71,-4.65,1.82,1.15,-133.76,-0.07,571,1,0,0
72068,95007.96,541.79,542.14,0.00,-0.74,-0.71,-4.61,2.01,1.43,-133.74,-0.23,571,1,0,0
72103,95009.80,541.66,542.14,-0.00,-0.73,-0.71,-4.48,1.88,1.26,-134.13,0.16,571,1,0,0
72143,95009.08,541.66,542.14,-0.00,-0.73,-0.71,-4.57,1.92,1.52,-133.94,0.07,571,1,0,0
72179,95001.77,542.33,542.14,0.00,-0.74,-0.71,-4.76,1.85,1.27,-133.90,-0.18,571,1,0,0
72215,95007.72,541.57,542.14,0.01,-0.73,-0.70,-4.65,1.93,1.37,-133.92,-0.33,571,1,0,0
72252,95008.45,541.75,542.14,0.01,-0.74,-0.70,-4.68,1.89,1.45,-133.65,-0.39,571,1,0,0
72288,95010.53,541.57,542.13,0.01,-0.73,-0.70,-4.53,1.76,1.16,-133.91,-0.67,571,1,0,0
72324,95004.57,542.09,542.13,0.00,-0.73,-0.71,-4.71,1.72,1.26,-134.21,-0.03,571,1,0,0
72364,95004.57,542.03,542.13,-0.00,-0.73,-0.70,-4.50,1.98,0.95,-134.05,0.28,571,1,0,0
72399,95007.72,541.81,542.13,0.00,-0.73,-0.71,-4.65,1.82,1.18,-133.88,-0.04,571,1,0,0
72435,95002.11,542.12,542.13,-0.00,-0.74,-0.70,-4.93,2.04,1.12,-133.79,0.15,571,1,0,0
72471,95007.38,541.84,542.13,-0.00,-0.73,-0.71,-4.81,1.97,1.34,-134.17,0.19,571,1,0,0
72507,95007.72,541.81,542.13,-0.01,-0.73,-0.70,-4.71,1.94,1.12,-133.83,0.30,571,1,0,0
72547,95004.57,542.09,542.13,-0.00,-0.73,-0.71,-4.54,1.78,1.24,-134.06,0.04,571,1,0,0
72583,95004.57,542.12,542.13,-0.00,-0.73,-0.71,-4.55,1.85,1.27,-134.11,0.06,571,1,0,0
72619,95004.57,542.09,542.13,-0.00,-0.73,-0.71,-4.46,1.58,1.29,-133.98,0.04,571,1,0,0
72654,95002.11,542.30,542.13,-0.00,-0.74,-0.70,-4.62,2.05,1.21,-133.59,0.14,571,1,0,0
72690,95002.83,542.24,542.13,0.00,-0.73,-0.71,-4.71,1.95,1.20,-134.26,-0.08,571,1,0,0
72727,95010.17,541.60,542.13,-0.00,-0.73,-0.72,-4.73,1.94,1.28,-134.36,0.25,571,1,0,0
72766,95008.10,541.78,542.13,0.01,-0.73,-0.71,-4.83,1.87,1.19,-133.95,-0.29,571,1,0,0
72802,95007.00,541.87,542.13,0.00,-0.74,-0.72,-4.75,1.83,1.37,-134.29,-0.12,571,1,0,0
72838,95004.57,542.09,542.13,0.01,-0.73,-0.71,-4.72,1.82,1.14,-134.26,-0.43,571,1,0,0
72875,95002.83,541.81,542.13,0.00,-0.73,-0.70,-4.58,2.03,1.19,-133.83,-0.03,571,1,0,0
72910,95011.63,541.47,542.12,0.00,-0.74,-0.71,-4.71,1.82,1.41,-134.10,-0.10,571,1,0,0
72946,94998.96,542.58,542.13,0.00,-0.74,-0.70,-4.55,1.99,1.15,-133.68,-0.01,571,1,0,0
72986,95002.49,542.27,542.13,0.00,-0.74,-0.71,-4.55,1.72,1.10,-133.99,-0.04,571,1,0,0
73022,95005.64,541.99,542.13,-0.00,-0.73,-0.71,-4.53,1.75,1.34,-133.92,0.11,571,1,0,0
73058,95002.83,542.24,542.13,-0.00,-0.74,-0.70,-4.67,1.69,1.24,-133.73,0.04,571,1,0,0
73094,95003.59,542.45,542.13,0.00,-0.73,-0.71,-4.60,1.82,1.18,-133.88,-0.03,571,1,0,0
73129,95008.82,541.72,542.13,-0.00,-0.74,-0.70,-4.65,1.84,1.12,-133.51,0.11,571,1,0,0
73165,95011.63,541.99,542.13,0.00,-0.73,-0.70,-4.55,1.79,1.12,-133.64,-0.06,571,1,0,0
73205,95007.72,542.30,542.13,-0.00,-0.74,-0.70,-4.57,1.95,1.28,-133.70,0.19,571,1,0,0
73241,95005.64,541.99,542.13,-0.00,-0.73,-0.71,-4.56,2.00,1.15,-133.90,0.08,571,1,0,0
73277,95003.21,542.21,542.13,-0.00,-0.73,-0.71,-4.53,1.90,1.29,-134.07,0.10,571,1,0,0
73313,95000.41,542.55,542.13,-0.00,-0.74,-0.71,-4.39,1.95,1.34,-133.97,0.05,571,1,0,0
73349,95006.77,541.90,542.13,0.00,-0.73,-0.71,-4.73,1.67,1.21,-134.27,-0.11,571,1,0,0
73384,95003.21,542.45,542.13,-0.00,-0.74,-0.71,-4.68,1.87,1.17,-134.03,0.11,571,1,0,0
73424,95006.39,541.68,542.13,-0.00,-0.73,-0.71,-4.76,1.82,1.23,-134.07,0.22,571,1,0,0
73460,95001.16,542.39,542.13,0.00,-0.73,-0.71,-4.68,2.01,1.19,-133.89,-0.10,571,1,0,0
73496,95001.53,542.36,542.13,0.00,-0.73,-0.71,-4.65,1.85,1.21,-134.09,-0.18,571,1,0,0
73532,95000.78,542.36,542.13,0.00,-0.73,-0.71,-4.62,1.84,1.27,-133.83,0.00,571,1,0,0
73568,95006.02,541.96,542.13,0.00,-0.74,-0.71,-4.53,1.76,1.12,-133.98,-0.10,571,1,0,0
73604,95002.83,542.17,542.13,0.00,-0.73,-0.71,-4.66,1.85,1.08,-134.00,-0.14,571,1,0,0
73644,95003.21,542.45,542.13,-0.00,-0.73,-0.71,-4.40,1.79,1.08,-134.02,0.11,571,1,0,0
73679,95000.03,542.49,542.13,0.00,-0.74,-0.70,-4.49,1.93,1.27,-133.72,-0.07,571,1,0,0
73715,95002.49,542.27,542.13,0.01,-0.73,-0.70,-4.55,1.98,1.30,-133.70,-0.29,571,1,0,0
73751,95007.49,541.93,542.13,0.00,-0.73,-0.71,-4.73,1.91,1.23,-134.10,-0.15,571,1,0,0
73787,95012.38,541.40,542.13,0.00,-0.74,-0.71,-4.96,1.95,1.24,-133.92,-0.05,571,1,0,0
73823,95007.14,542.08,542.13,0.01,-0.73,-0.71,-4.98,1.96,1.44,-133.96,-0.40,571,1,0,0
73876,95004.34,542.11,542.13,0.01,-0.73,-0.71,-4.64,1.88,1.23,-134.11,-0.34,571,1,0,0
73912,95007.14,542.08,542.13,0.01,-0.74,-0.71,-4.52,1.80,1.03,-133.63,-0.29,571,1,0,0
73948,95001.53,542.36,542.13,0.00,-0.73,-0.71,-4.39,1.95,1.22,-134.23,-0.07,571,1,0,0
73984,95001.88,542.32,542.13,-0.00,-0.73,-0.71,-4.62,1.79,1.24,-133.94,0.04,571,1,0,0
74019,95003.59,542.17,542.13,0.00,-0.74,-0.69,-4.65,1.92,1.14,-133.35,-0.12,571,1,0,0
74064,95003.21,542.21,542.13,0.00,-0.74,-0.71,-4.82,1.98,1.14,-133.93,-0.21,571,1,0,0
74104,95001.53,542.36,542.13,0.00,-0.73,-0.71,-4.67,1.85,1.39,-134.14,-0.10,571,1,0,0
74140,95001.88,542.36,542.13,0.00,-0.73,-0.71,-4.88,1.95,1.11,-134.48,-0.23,571,1,0,0
74176,95002.63,542.26,542.13,-0.00,-0.73,-0.71,-4.62,1.81,1.26,-133.97,0.07,571,1,0,0
74212,95002.25,542.11,542.13,0.00,-0.74,-0.71,-4.49,1.81,1.00,-133.94,-0.26,571,1,0,0
74248,95005.82,541.98,542.13,0.01,-0.73,-0.71,-4.45,1.86,1.34,-134.27,-0.36,571,1,0,0
74288,95004.69,542.08,542.13,0.01,-0.73,-0.71,-4.73,1.95,1.39,-134.07,-0.39,571,1,0,0
74323,94999.83,542.50,542.13,0.00,-0.74,-0.71,-4.60,1.85,1.39,-133.90,-0.15,571,1,0,0
74359,95010.67,542.08,542.13,-0.00,-0.73,-0.71,-4.68,1.90,1.05,-134.08,0.04,571,1,0,0
74395,95004.69,542.08,542.13,0.00,-0.73,-0.71,-4.65,1.81,1.26,-134.07,-0.23,571,1,0,0
74431,95007.86,542.29,542.13,0.00,-0.72,-0.71,-4.75,1.78,1.17,-134.42,-0.22,571,1,0,0
74467,95002.25,542.29,542.13,-0.01,-0.74,-0.71,-4.69,1.99,1.17,-133.80,0.32,571,1,0,0
74507,95008.99,541.70,542.13,-0.00,-0.74,-0.70,-4.61,1.85,1.29,-133.65,0.14,571,1,0,0
74543,95004.34,542.11,542.13,-0.00,-0.74,-0.70,-4.55,1.88,1.11,-133.76,0.01,571,1,0,0
74578,95009.95,542.36,542.13,-0.00,-0.74,-0.71,-4.44,1.82,0.98,-134.01,0.03,571,1,0,0
74613,95003.00,542.23,542.13,-0.01,-0.74,-0.70,-4.59,1.97,1.18,-133.59,0.38,571,1,0,0
74649,95005.44,542.01,542.13,-0.01,-0.73,-0.71,-4.76,1.75,1.17,-134.10,0.33,571,1,0,0
74685,95007.86,541.80,542.13,-0.00,-0.74,-0.71,-4.71,1.87,1.20,-133.87,0.01,571,1,0,0
74725,95002.63,541.98,542.13,0.00,-0.73,-0.70,-4.93,1.95,1.21,-133.65,-0.15,571,1,0,0
74760,95008.24,541.77,542.13,-0.00,-0.73,-0.72,-4.82,1.91,1.10,-134.34,0.18,571,1,0,0
74796,95003.00,541.73,542.13,-0.00,-0.73,-0.71,-4.61,1.98,1.29,-133.83,0.22,571,1,0,0
74831,95005.82,541.98,542.13,0.00,-0.74,-0.70,-4.62,1.71,1.34,-133.43,-0.12,571,1,0,0
74867,95003.38,542.19,542.13,-0.00,-0.74,-0.71,-4.61,1.95,1.27,-133.81,0.08,571,1,0,0
74903,95003.38,541.64,542.13,-0.00,-0.73,-0.71,-4.55,1.92,1.15,-134.10,0.25,571,1,0,0
74942,95003.00,541.95,542.13,0.01,-0.73,-0.70,-4.53,1.70,1.13,-133.80,-0.38,571,1,0,0
74979,95003.38,542.19,542.13,-0.00,-0.73,-0.71,-4.67,1.82,1.19,-134.27,0.01,571,1,0,0
75015,95005.07,542.04,542.13,0.01,-0.73,-0.71,-4.71,1.87,1.19,-134.02,-0.41,571,1,0,0
75051,95003.71,542.16,542.13,-0.00,-0.73,-0.71,-4.65,1.83,1.21,-134.05,0.19,571,1,0,0
75087,95008.24,541.77,542.12,-0.00,-0.74,-0.71,-4.54,1.94,1.22,-133.97,0.04,571,1,0,0
75123,95000.21,542.47,542.13,0.00,-0.74,-0.70,-4.71,1.86,1.11,-133.53,-0.18,571,1,0,0
75163,95005.82,541.85,542.12,0.00,-0.73,-0.71,-4.55,1.94,1.21,-134.13,-0.04,571,1,0,0
75199,95010.67,541.55,542.12,-0.00,-0.74,-0.71,-4.75,1.76,1.34,-133.75,0.14,571,1,0,0
75235,95003.38,542.50,542.12,0.00,-0.73,-0.70,-4.90,1.89,1.07,-133.79,-0.19,571,1,0,0
75272,94999.46,542.54,542.13,0.00,-0.74,-0.71,-4.90,1.95,1.46,-133.82,-0.05,571,1,0,0
75308,95003.71,541.92,542.12,-0.00,-0.73,-0.70,-4.69,1.75,1.24,-133.81,0.22,571,1,0,0
75343,95012.11,541.43,542.12,-0.01,-0.74,-0.71,-4.55,1.72,1.23,-133.78,0.36,571,1,0,0
75383,95000.58,542.44,542.12,-0.01,-0.73,-0.70,-4.43,2.10,1.24,-133.98,0.30,571,1,0,0
75419,95003.71,542.16,542.12,0.00,-0.73,-0.70,-4.52,1.81,0.99,-133.80,-0.10,571,1,0,0
75456,95000.89,542.41,542.12,-0.01,-0.74,-0.70,-4.39,2.01,1.35,-133.61,0.40,571,1,0,0
75492,95005.82,541.98,542.12,0.00,-0.74,-0.71,-4.73,1.98,1.06,-133.99,-0.07,571,1,0,0
75528,94999.46,541.98,542.12,0.00,-0.74,-0.71,-4.82,1.78,1.26,-134.06,-0.01,571,1,0,0
75564,95002.63,542.26,542.12,-0.00,-0.73,-0.71,-4.95,1.89,1.32,-134.15,0.14,571,1,0,0
75603,95003.00,542.23,542.12,0.00,-0.73,-0.71,-4.71,2.04,1.38,-133.92,-0.04,571,1,0,0
75640,95006.50,542.41,542.13,0.01,-0.74,-0.71,-4.70,1.79,1.09,-133.66,-0.31,571,1,0,0
75676,95004.08,542.13,542.13,-0.00,-0.74,-0.71,-4.59,1.96,1.22,-133.90,0.22,571,1,0,0
75712,94997.77,542.68,542.13,-0.00,-0.73,-0.71,-4.56,1.88,1.06,-134.26,0.14,571,1,0,0
75748,95001.64,542.35,542.13,0.00,-0.74,-0.71,-4.49,1.69,1.28,-133.82,-0.18,571,1,0,0
75785,95003.71,542.16,542.13,0.01,-0.74,-0.71,-4.47,1.86,1.24,-134.03,-0.31,571,1,0,0
75838,95004.08,542.13,542.13,0.00,-0.74,-0.71,-4.71,1.83,1.18,-133.85,-0.26,571,1,0,0
75874,95002.75,542.25,542.13,0.01,-0.73,-0.70,-4.61,1.85,1.06,-133.52,-0.35,571,1,0,0
75910,95004.46,542.13,542.13,-0.00,-0.73,-0.70,-4.71,1.88,1.10,-133.99,0.25,571,1,0,0
75947,94998.09,542.66,542.13,-0.00,-0.73,-0.71,-4.59,1.87,1.16,-134.07,0.01,571,1,0,0
75982,95005.21,542.10,542.13,0.00,-0.73,-0.71,-4.61,1.89,1.24,-134.11,-0.18,571,1,0,0
76018,95002.02,542.31,542.13,0.00,-0.74,-0.70,-4.63,1.85,1.27,-133.69,-0.14,571,1,0,0
76067,95003.38,542.19,542.13,0.01,-0.73,-0.71,-4.75,1.80,1.26,-133.98,-0.32,571,1,0,0
76103,95004.46,542.07,542.13,0.00,-0.74,-0.71,-4.72,1.88,1.37,-134.00,-0.05,571,1,0,0
76139,95004.83,542.07,542.13,0.00,-0.74,-0.70,-4.68,1.81,1.30,-133.75,-0.07,571,1,0,0
76175,95007.63,541.82,542.13,-0.00,-0.73,-0.71,-4.68,1.86,1.29,-134.05,0.05,571,1,0,0
76212,95002.75,542.25,542.13,0.01,-0.74,-0.70,-4.52,1.82,1.40,-133.57,-0.51,571,1,0,0
76252,95001.64,542.35,542.13,0.00,-0.74,-0.71,-4.82,1.86,1.16,-133.82,0.00,571,1,0,0
76288,95007.63,541.82,542.13,0.01,-0.73,-0.70,-4.66,1.95,1.22,-133.93,-0.30,571,1,0,0
76323,95005.21,542.07,542.13,0.00,-0.74,-0.70,-4.49,1.89,1.27,-133.72,-0.18,571,1,0,0
76359,95001.64,542.35,542.13,0.01,-0.73,-0.71,-4.61,1.75,1.08,-134.07,-0.42,571,1,0,0
76395,95004.83,542.10,542.13,0.00,-0.74,-0.71,-4.65,1.82,1.18,-134.01,-0.07,571,1,0,0
76432,94999.94,542.49,542.13,-0.01,-0.74,-0.70,-4.70,2.00,1.07,-133.44,0.33,571,1,0,0
76472,95005.21,542.03,542.13,0.00,-0.74,-0.71,-4.52,1.88,1.18,-133.99,-0.01,571,1,0,0
76508,95004.46,542.10,542.13,-0.00,-0.73,-0.71,-4.67,1.72,1.23,-134.31,0.15,571,1,0,0
76544,95005.92,541.97,542.13,-0.00,-0.74,-0.71,-4.75,1.92,1.23,-133.82,0.08,571,1,0,0
76579,95002.39,542.28,542.13,0.00,-0.73,-0.71,-4.66,1.82,1.47,-134.20,-0.11,571,1,0,0
76615,95005.92,541.94,542.13,0.00,-0.73,-0.70,-4.76,1.74,1.34,-133.52,-0.25,571,1,0,0
76652,95002.39,542.28,542.13,0.00,-0.74,-0.71,-4.69,1.65,1.21,-133.96,-0.04,571,1,0,0
76692,95005.92,541.97,542.13,0.00,-0.74,-0.70,-4.77,1.91,1.23,-133.58,-0.14,571,1,0,0
76728,95012.28,541.97,542.13,0.00,-0.74,-0.71,-4.69,1.95,1.09,-133.75,-0.12,571,1,0,0
76764,95002.75,542.25,542.13,0.00,-0.74,-0.70,-4.71,1.69,1.00,-133.81,-0.15,571,1,0,0
76800,95008.73,541.72,542.13,0.00,-0.74,-0.71,-4.62,1.94,1.21,-133.66,-0.18,571,1,0,0
76836,95000.69,542.43,542.13,0.00,-0.73,-0.71,-4.67,1.94,1.27,-134.03,-0.16,571,1,0,0
76872,94999.94,542.49,542.13,0.00,-0.74,-0.71,-4.59,2.07,1.14,-133.96,-0.20,571,1,0,0
76912,95005.55,542.00,542.13,-0.00,-0.73,-0.71,-4.67,1.81,1.24,-133.91,0.21,571,1,0,0
76948,95003.12,542.00,542.13,0.00,-0.73,-0.71,-4.71,2.11,1.11,-134.09,-0.05,571,1,0,0
76984,95011.16,541.51,542.13,0.01,-0.73,-0.70,-4.55,1.75,1.21,-133.88,-0.44,571,1,0,0
77020,95003.50,541.69,542.13,-0.00,-0.73,-0.71,-4.59,1.77,1.33,-134.09,0.03,571,1,0,0
77056,95006.67,541.90,542.13,0.00,-0.74,-0.71,-4.65,2.00,1.25,-133.92,-0.25,571,1,0,0
77092,94998.64,542.61,542.13,0.00,-0.74,-0.71,-4.56,1.82,1.14,-133.83,-0.15,571,1,0,0
77132,95003.12,542.22,542.13,0.00,-0.74,-0.70,-4.59,1.79,1.05,-133.64,-0.21,571,1,0,0
77168,95003.87,542.15,542.13,0.00,-0.74,-0.71,-4.74,1.97,1.24,-133.67,0.00,571,1,0,0
77204,95006.67,541.90,542.13,0.00,-0.74,-0.71,-4.88,1.82,1.22,-133.93,-0.01,571,1,0,0
77240,95003.50,542.22,542.13,-0.00,-0.74,-0.71,-4.75,1.81,1.21,-133.86,0.03,571,1,0,0
77276,95003.50,542.18,542.13,0.00,-0.74,-0.71,-4.80,1.79,1.10,-133.58,-0.05,571,1,0,0
77312,95006.30,542.92,542.13,0.00,-0.74,-0.71,-4.88,1.87,1.11,-133.92,-0.01,571,1,0,0
77351,95001.07,542.40,542.13,0.01,-0.74,-0.71,-4.72,1.94,1.37,-133.95,-0.33,571,1,0,0
77387,95005.92,541.97,542.13,0.01,-0.73,-0.71,-4.72,1.95,1.28,-133.91,-0.37,571,1,0,0
77424,95000.69,542.43,542.13,0.00,-0.74,-0.71,-4.70,1.73,1.08,-133.91,-0.26,571,1,0,0
77460,95007.37,541.94,542.13,0.00,-0.73,-0.71,-4.80,1.91,1.13,-134.04,-0.21,571,1,0,0
77496,95002.13,542.30,542.13,0.00,-0.74,-0.71,-4.75,1.84,1.24,-133.85,-0.12,571,1,0,0
