t,p,alt,KMF,ax,ay,az,gx,gy,gz,roll,pitch,RAM,Launch,Apo,Land
80970,95502.32,498.49,498.63,1.55,-0.10,-0.01,28.26,0.40,0.66,-95.16,-86.30,571,1,0,0
81013,95500.28,498.70,498.63,2.00,-0.11,-0.20,81.93,4.63,5.21,-151.77,-83.50,571,1,0,0
81046,95499.52,498.77,498.63,2.00,-0.22,-0.49,167.92,-23.34,2.66,-156.08,-75.11,571,1,0,0
81080,95451.81,502.94,498.64,-2.00,1.63,2.00,249.99,10.40,-59.38,39.22,-37.77,571,1,0,0
81114,95429.02,504.93,498.66,-1.34,0.88,0.60,-6.29,26.54,77.16,55.66,51.42,571,1,0,0
81147,95451.96,502.19,498.67,-0.41,0.45,-0.15,-126.20,17.08,16.65,107.91,40.90,571,1,0,0
81184,95473.68,501.02,498.67,-0.01,0.08,0.10,-139.69,10.54,8.73,39.44,6.54,571,1,0,0
81218,95466.94,501.61,498.68,0.01,0.16,0.16,-175.31,11.20,5.23,45.18,-1.35,571,1,0,0
81253,95461.11,501.39,498.69,-0.01,0.13,0.03,-168.85,18.64,0.11,77.79,2.32,571,1,0,0
81287,95468.02,501.46,498.70,0.00,0.10,0.05,-166.85,23.73,-0.50,62.44,-0.37,571,1,0,0
81320,95469.33,501.41,498.71,0.00,0.10,0.05,-163.19,27.47,1.32,62.26,-0.88,571,1,0,0
81354,95466.66,501.64,498.72,0.00,0.10,0.07,-171.10,31.75,3.54,54.44,-1.19,571,1,0,0
81386,95467.60,501.56,498.73,0.00,0.08,0.08,-178.47,36.38,5.59,47.11,-0.75,571,1,0,0
81420,95470.81,501.28,498.74,0.00,0.05,0.07,-193.75,40.69,8.56,39.62,-3.30,571,1,0,0
81454,95465.50,501.74,498.75,0.00,0.04,0.06,-209.99,44.73,13.02,35.65,-3.71,571,1,0,0
81487,95465.27,501.76,498.76,0.00,0.02,0.06,-221.59,47.90,18.97,17.58,-3.96,571,1,0,0
81521,95455.89,502.19,498.77,-0.00,0.02,0.03,-220.96,49.08,25.84,34.32,0.91,571,1,0,0
81559,95463.19,501.94,498.78,0.01,0.01,0.01,-219.93,47.84,32.45,50.91,-38.68,571,1,0,0
81593,95452.56,502.87,498.80,0.00,0.02,-0.01,-224.89,44.56,37.47,109.45,-2.38,571,1,0,0
81627,95455.21,502.45,498.81,0.01,-0.01,-0.01,-240.19,40.75,42.70,-139.41,-36.21,571,1,0,0
81660,95448.72,503.21,498.83,-0.00,-0.02,-0.00,-250.00,33.91,47.15,-102.67,1.88,571,1,0,0
81695,95449.33,503.15,498.85,0.01,-0.03,0.00,-250.00,27.34,49.90,-83.37,-14.26,571,1,0,0
81729,95451.63,502.95,498.87,0.01,-0.04,0.01,-248.03,21.42,51.28,-80.82,-11.04,571,1,0,0
81767,95450.75,503.03,498.89,0.00,-0.05,-0.01,-237.63,15.67,51.99,-98.68,-4.56,571,1,0,0
81801,95450.60,503.04,498.91,0.01,-0.06,-0.01,-225.19,11.36,52.98,-96.30,-8.68,571,1,0,0
81835,95444.86,503.54,498.93,0.01,-0.06,-0.04,-218.22,6.48,54.32,-123.53,-5.50,571,1,0,0
81868,95447.52,503.31,498.96,0.01,-0.07,-0.05,-211.61,0.09,54.98,-127.20,-5.65,571,1,0,0
81903,95447.39,503.26,498.98,0.01,-0.06,-0.06,-211.20,-6.41,55.31,-134.68,-5.45,571,1,0,0
81937,95443.46,503.66,499.01,0.00,-0.06,-0.08,-211.46,-13.05,54.92,-141.06,-1.88,571,1,0,0
81975,95452.10,503.40,499.03,0.01,-0.06,-0.08,-216.60,-20.64,52.82,-142.38,-6.16,571,1,0,0
82009,95446.49,503.43,499.06,0.01,-0.05,-0.08,-214.10,-27.17,49.86,-147.48,-7.05,571,1,0,0
82042,95447.47,503.31,499.09,0.02,-0.05,-0.09,-210.01,-32.49,46.01,-150.45,-9.34,571,1,0,0
82077,95454.03,502.74,499.11,0.02,-0.05,-0.08,-207.36,-36.37,41.89,-150.70,-11.25,571,1,0,0
82111,95446.96,503.36,499.14,0.01,-0.05,-0.10,-200.83,-39.99,37.40,-153.74,-7.15,571,1,0,0
82149,95452.58,502.87,499.17,0.02,-0.03,-0.12,-193.25,-43.16,32.51,-163.86,-7.52,571,1,0,0
82183,95457.82,502.41,499.19,0.01,-0.03,-0.11,-185.60,-45.17,28.30,-162.88,-5.09,571,1,0,0
82217,95454.25,502.72,499.22,0.02,-0.03,-0.12,-175.98,-46.74,23.69,-165.16,-9.25,571,1,0,0
82251,95458.03,502.26,499.24,0.02,-0.02,-0.12,-165.14,-47.94,19.10,-171.77,-9.78,571,1,0,0
82285,95457.66,502.43,499.27,0.02,-0.01,-0.13,-154.35,-48.42,14.69,-174.46,-8.52,571,1,0,0
82320,95460.11,502.21,499.29,0.02,0.00,-0.14,-148.80,-48.16,10.03,179.63,-7.89,571,1,0,0
82358,95463.11,502.40,499.31,0.02,0.02,-0.16,-150.22,-46.57,6.22,171.92,-5.90,571,1,0,0
82392,95463.50,501.91,499.34,0.02,0.04,-0.16,-158.31,-45.06,2.86,165.42,-5.97,571,1,0,0
82425,95464.10,501.86,499.36,0.02,0.05,-0.18,-170.80,-43.05,-1.05,165.19,-4.95,571,1,0,0
82459,95466.14,501.68,499.38,0.02,0.08,-0.18,-187.14,-41.44,-3.61,154.86,-4.45,571,1,0,0
82493,95469.58,501.38,499.40,0.02,0.09,-0.19,-211.56,-39.30,-8.08,153.09,-5.70,571,1,0,0
82528,95472.84,500.82,499.41,0.02,0.11,-0.20,-241.00,-36.67,-13.63,151.66,-4.66,571,1,0,0
82565,95478.29,500.62,499.42,0.02,0.15,-0.18,-250.00,-31.55,-20.91,140.27,-4.50,571,1,0,0
82599,95486.94,499.87,499.42,0.03,0.14,-0.19,-250.00,-25.46,-25.44,145.08,-6.99,571,1,0,0
82633,95482.86,499.76,499.43,0.02,0.16,-0.15,-250.00,-18.71,-28.17,133.57,-5.96,571,1,0,0
82667,95470.99,501.26,499.44,0.02,0.18,-0.12,-250.00,-13.96,-27.78,124.46,-6.14,571,1,0,0
82701,95467.52,501.56,499.46,0.02,0.18,-0.08,-250.00,-11.28,-26.98,113.36,-5.00,571,1,0,0
82739,95468.57,501.77,499.48,0.02,0.20,-0.05,-218.42,-8.21,-26.33,103.86,-5.08,571,1,0,0
82774,95474.64,500.94,499.50,0.02,0.22,-0.03,-174.36,-3.46,-25.70,96.60,-4.56,571,1,0,0
82807,95465.15,501.77,499.52,0.02,0.25,0.01,-142.44,-0.79,-26.02,87.48,-4.21,571,1,0,0
82841,95467.08,501.60,499.54,0.02,0.26,0.03,-118.36,1.13,-25.78,84.00,-4.49,571,1,0,0
82884,95471.30,500.58,499.55,0.02,0.28,0.05,-97.63,5.13,-25.31,79.93,-4.83,571,1,0,0
82918,95469.69,501.28,499.56,0.02,0.30,0.06,-93.65,7.08,-24.54,78.29,-4.30,571,1,0,0
82955,95477.35,500.70,499.57,0.02,0.32,0.11,-104.61,8.67,-23.19,71.75,-3.08,571,1,0,0
82998,95474.03,501.09,499.59,0.02,0.33,0.17,-138.15,13.34,-20.15,63.27,-2.63,571,1,0,0
83033,95477.41,500.70,499.60,0.03,0.31,0.23,-190.19,20.10,-17.18,53.48,-4.48,571,1,0,0
83066,95489.38,499.65,499.60,2.00,2.00,2.00,-2.30,165.39,-104.41,45.00,-35.27,571,1,0,0
83100,95508.25,498.01,499.58,1.50,-2.00,2.00,249.99,-249.66,90.49,-45.00,-27.98,571,1,0,0
83134,95495.96,499.08,499.58,-0.65,0.14,0.25,194.70,-95.94,-18.68,27.98,66.18,571,1,0,0
83172,95487.55,499.81,499.58,0.08,-0.08,0.04,192.09,-108.05,-3.59,-65.40,-44.59,571,1,0,0
83206,95479.83,500.49,499.59,0.03,0.10,0.01,249.99,-106.52,14.42,84.75,-14.73,571,1,0,0
83239,95481.32,500.36,499.60,0.01,0.04,-0.03,249.99,-102.51,32.85,128.55,-6.23,571,1,0,0
83273,95489.73,499.34,499.59,-0.11,0.22,0.21,246.86,-94.41,44.02,45.97,19.73,571,1,0,0
83307,95484.88,500.05,499.60,0.07,0.14,-0.27,120.93,-80.46,59.40,152.00,-13.19,571,1,0,0
83342,95484.88,500.05,499.60,0.73,0.17,-0.32,-91.58,-73.51,34.29,151.88,-63.56,571,1,0,0
83379,95485.63,500.05,499.61,-0.69,0.41,-1.10,-250.00,49.13,-99.19,159.53,30.21,571,1,0,0
83414,95494.39,499.25,499.60,0.04,-0.16,-0.06,-250.00,115.27,-68.79,-109.84,-14.16,571,1,0,0
83447,95497.19,498.97,499.60,0.65,-0.55,2.00,249.99,236.31,-24.09,-15.46,-17.31,571,1,0,0
83481,95494.04,499.25,499.59,0.43,-0.15,0.55,249.99,-67.89,14.08,-15.21,-36.98,571,1,0,0
83515,95488.44,499.74,499.60,0.07,0.21,-0.22,207.78,-21.07,25.31,135.79,-12.51,571,1,0,0
83553,95489.16,499.67,499.60,0.21,0.48,0.62,116.42,27.82,-4.35,37.45,-15.21,571,1,0,0
83587,95491.59,499.46,499.60,0.19,0.30,0.62,47.96,73.04,-30.94,26.36,-15.74,571,1,0,0
83620,95483.17,500.20,499.60,0.05,0.03,0.03,109.62,-15.05,3.41,47.82,-50.43,571,1,0,0
83654,95486.35,500.16,499.61,0.08,1.31,1.39,234.65,9.99,-13.32,43.32,-2.27,571,1,0,0
83688,95486.35,499.74,499.61,-0.09,1.35,0.38,187.63,7.47,-1.08,74.26,3.80,571,1,0,0
83722,95485.63,499.98,499.61,-0.01,0.95,0.28,29.05,2.47,-0.02,73.81,0.57,571,1,0,0
83760,95485.00,500.03,499.61,-0.01,0.90,0.25,-116.41,0.18,1.85,74.59,0.50,571,1,0,0
83793,95489.89,500.03,499.62,-0.00,1.28,1.45,-142.20,0.18,5.18,41.57,0.10,571,1,0,0
83827,95488.19,499.76,499.62,0.08,0.58,0.74,-72.06,2.41,3.35,38.05,-4.57,571,1,0,0
83861,95491.37,499.48,499.62,-0.03,0.58,0.76,32.56,4.07,3.69,37.02,1.52,571,1,0,0
83895,95485.75,499.97,499.62,0.01,0.63,0.65,97.43,1.90,-0.48,44.09,-0.61,571,1,0,0
83928,95486.14,499.94,499.62,-0.04,1.01,0.62,84.48,5.14,-0.55,58.34,2.08,571,1,0,0
83965,95476.02,500.82,499.63,-0.07,0.96,0.51,-53.02,0.43,3.46,62.09,3.62,571,1,0,0
83999,95487.62,499.81,499.63,0.00,0.77,0.76,-71.97,0.27,3.58,45.48,-0.26,571,1,0,0
84033,95486.86,499.87,499.64,0.01,0.63,0.72,0.51,1.84,1.17,41.19,-0.50,571,1,0,0
84067,95485.16,500.02,499.64,0.00,0.78,0.65,47.19,3.11,-0.18,50.45,-0.23,571,1,0,0
84100,95482.36,500.27,499.65,0.00,0.83,0.50,8.26,2.12,1.15,58.85,0.00,571,1,0,0
84133,95490.77,500.02,499.65,0.01,0.81,0.58,-39.83,1.04,2.50,54.40,-0.46,571,1,0,0
84171,95489.07,499.68,499.65,0.02,0.71,0.68,-9.93,1.92,1.53,46.04,-1.18,571,1,0,0
84205,95490.77,499.53,499.65,0.01,0.77,0.61,19.21,2.30,0.35,51.87,-0.67,571,1,0,0
84239,95477.47,500.69,499.66,-0.02,0.82,0.53,-6.52,2.27,0.69,57.17,1.47,571,1,0,0
84272,95489.46,499.99,499.66,0.01,0.76,0.62,-18.42,1.59,1.75,50.86,-0.39,571,1,0,0
84305,95483.84,499.37,499.66,0.00,0.74,0.62,-0.49,2.04,1.37,49.71,-0.25,571,1,0,0
84339,95490.55,499.55,499.66,0.00,0.77,0.59,3.30,1.96,1.12,52.32,-0.13,571,1,0,0
84373,95486.64,499.89,499.66,0.01,0.78,0.60,-10.69,1.69,1.59,52.36,-0.46,571,1,0,0
84410,95489.83,499.86,499.66,0.00,0.75,0.62,-5.13,1.88,1.56,50.43,-0.07,571,1,0,0
84444,95484.22,500.14,499.66,0.02,0.76,0.60,0.31,1.93,1.34,51.97,-0.91,571,1,0,0
84477,95486.27,499.92,499.67,0.01,0.78,0.59,-7.26,1.82,1.52,52.74,-0.67,571,1,0,0
84511,95487.02,499.86,499.67,0.01,0.76,0.62,-6.06,1.75,1.21,50.72,-0.52,571,1,0,0
84545,95487.75,499.80,499.67,0.01,0.77,0.60,-1.64,1.79,1.17,51.82,-0.73,571,1,0,0
84579,95487.39,499.83,499.67,0.00,0.77,0.59,-5.78,2.05,1.15,52.60,-0.19,571,1,0,0
84616,95484.60,500.07,499.67,0.01,0.76,0.61,-5.36,1.97,1.32,51.33,-0.47,571,1,0,0
84649,95484.60,500.07,499.68,0.01,0.77,0.60,-3.01,2.13,1.29,51.95,-0.72,571,1,0,0
84683,95490.55,499.55,499.67,0.00,0.77,0.61,-5.60,2.10,1.26,51.79,-0.24,571,1,0,0
84717,95484.22,500.10,499.68,0.01,0.76,0.61,-4.92,1.93,1.50,51.61,-0.47,571,1,0,0
84751,95485.32,499.52,499.68,0.01,0.77,0.59,-3.85,1.98,1.09,52.53,-0.72,571,1,0,0
84793,95482.52,500.29,499.68,0.01,0.77,0.60,-5.34,1.98,1.40,51.72,-0.34,571,1,0,0
84831,95484.60,500.07,499.68,0.01,0.77,0.60,-4.07,1.75,1.27,51.98,-0.76,571,1,0,0
84865,95488.13,500.25,499.69,0.01,0.77,0.60,-4.65,2.01,1.14,51.94,-0.64,571,1,0,0
84897,95485.70,500.09,499.69,0.01,0.76,0.60,-4.75,1.91,1.34,51.59,-0.53,571,1,0,0
84940,95483.65,500.15,499.69,0.01,0.77,0.61,-4.45,1.93,1.16,51.82,-0.50,571,1,0,0
84974,95486.77,499.88,499.70,0.01,0.77,0.61,-4.92,1.89,1.15,51.66,-0.57,571,1,0,0
85008,95483.97,500.13,499.70,0.01,0.77,0.60,-4.54,2.02,1.43,52.10,-0.59,571,1,0,0
85045,95480.09,500.30,499.70,0.01,0.77,0.61,-5.17,2.03,1.14,51.54,-0.53,571,1,0,0
85079,95483.65,500.15,499.71,0.01,0.77,0.61,-4.49,1.95,1.29,51.66,-0.34,571,1,0,0
85112,95481.54,500.34,499.71,0.01,0.77,0.61,-4.39,1.62,1.20,51.71,-0.44,571,1,0,0
85146,95481.92,500.30,499.72,0.01,0.76,0.60,-5.06,1.83,1.41,51.77,-0.79,571,1,0,0
85180,95479.87,500.48,499.72,0.01,0.76,0.61,-4.35,1.98,1.24,51.41,-0.46,571,1,0,0
85213,95483.40,499.93,499.72,0.01,0.76,0.60,-4.69,1.91,1.20,51.63,-0.66,571,1,0,0
85251,95484.16,500.11,499.73,0.01,0.77,0.61,-5.00,1.90,1.24,51.54,-0.59,571,1,0,0
85284,95496.07,499.07,499.72,0.01,0.76,0.59,-4.70,1.93,1.30,52.02,-0.67,571,1,0,0
85318,95481.70,500.33,499.73,0.00,0.77,0.60,-4.82,1.93,1.42,51.99,-0.21,571,1,0,0
85351,95486.71,499.64,499.72,0.01,0.76,0.60,-4.73,2.00,1.18,51.72,-0.37,571,1,0,0
85385,95484.28,500.23,499.73,0.01,0.77,0.60,-4.72,2.10,1.30,51.94,-0.46,571,1,0,0
85419,95489.14,499.67,499.73,0.01,0.77,0.60,-4.85,2.08,1.44,51.95,-0.58,571,1,0,0
85456,95481.85,500.31,499.73,0.01,0.77,0.60,-3.88,2.04,1.26,52.09,-0.76,571,1,0,0
85489,95486.71,499.79,499.73,0.01,0.76,0.60,-5.07,2.01,1.31,51.66,-0.86,571,1,0,0
85523,95484.66,500.31,499.74,0.01,0.77,0.61,-4.28,1.82,1.42,51.84,-0.58,571,1,0,0
85557,95487.85,499.79,499.74,0.01,0.77,0.60,-4.52,2.02,1.34,51.84,-0.55,571,1,0,0
85591,95479.05,500.56,499.74,0.01,0.77,0.61,-4.84,1.82,1.24,51.57,-0.36,571,1,0,0
85624,95486.14,499.94,499.74,0.00,0.76,0.61,-4.39,1.92,1.25,51.49,-0.16,571,1,0,0
85657,95484.28,500.10,499.75,0.01,0.77,0.60,-4.17,1.91,1.25,52.32,-0.57,571,1,0,0
85695,95473.82,501.01,499.76,0.01,0.77,0.60,-4.88,1.85,1.21,52.01,-0.43,571,1,0,0
85729,95485.39,500.00,499.76,0.01,0.77,0.59,-4.65,1.98,1.42,52.53,-0.82,571,1,0,0
85763,95484.66,500.07,499.76,0.01,0.76,0.60,-4.39,1.95,1.38,51.72,-0.72,571,1,0,0
85795,95485.77,499.97,499.76,0.01,0.76,0.61,-4.57,1.99,1.27,51.48,-0.59,571,1,0,0
85829,95481.85,500.31,499.76,0.01,0.77,0.60,-4.78,1.83,1.33,52.03,-0.50,571,1,0,0
85863,95490.64,500.31,499.77,0.01,0.76,0.61,-4.49,1.85,1.38,51.32,-0.47,571,1,0,0
85900,95487.47,499.82,499.77,0.01,0.77,0.60,-4.42,1.89,1.28,52.02,-0.56,571,1,0,0
85934,95485.04,500.03,499.77,0.01,0.77,0.60,-4.54,1.98,1.34,52.06,-0.34,571,1,0,0
85967,95481.85,500.31,499.77,0.01,0.76,0.60,-4.84,1.80,1.21,51.76,-0.87,571,1,0,0
86001,95481.48,499.79,499.77,0.01,0.77,0.60,-4.75,1.94,1.42,52.32,-0.56,571,1,0,0
86035,95485.04,500.34,499.78,0.01,0.77,0.61,-4.30,2.08,1.37,51.59,-0.47,571,1,0,0
86068,95487.85,499.79,499.78,0.01,0.76,0.61,-4.44,1.93,1.34,51.61,-0.70,571,1,0,0
86106,95487.47,500.31,499.78,0.00,0.76,0.60,-5.06,2.07,1.70,51.57,-0.07,571,1,0,0
86139,95481.48,499.79,499.78,0.01,0.77,0.61,-4.17,2.02,1.47,51.60,-0.67,571,1,0,0
86173,95485.04,500.03,499.78,0.01,0.77,0.60,-5.25,1.96,1.29,52.24,-0.58,571,1,0,0
86206,95487.85,499.79,499.78,0.00,0.77,0.61,-4.59,1.72,1.21,51.64,-0.22,571,1,0,0
86240,95484.66,500.07,499.79,0.01,0.77,0.61,-4.68,1.79,1.24,51.48,-0.56,571,1,0,0
86274,95485.77,499.97,499.79,0.01,0.77,0.61,-4.79,1.94,1.50,51.53,-0.63,571,1,0,0
86310,95487.85,499.79,499.79,0.01,0.77,0.60,-4.50,1.88,1.36,51.92,-0.57,571,1,0,0
86344,95485.77,499.97,499.79,0.00,0.77,0.60,-4.81,1.85,1.15,52.17,-0.22,571,1,0,0
86378,95480.89,500.39,499.79,0.01,0.77,0.60,-4.43,1.98,1.37,52.19,-0.44,571,1,0,0
86412,95483.69,500.15,499.79,0.00,0.77,0.60,-4.83,1.69,1.40,51.78,-0.24,571,1,0,0
86445,95485.77,499.97,499.80,0.00,0.77,0.60,-4.30,1.94,1.14,52.19,-0.29,571,1,0,0
86478,95479.78,500.49,499.80,0.01,0.77,0.61,-4.91,2.09,1.39,51.53,-0.64,571,1,0,0
86516,95477.72,500.67,499.81,0.00,0.77,0.60,-4.45,1.92,1.16,52.04,-0.27,571,1,0,0
86549,95481.26,500.36,499.81,0.01,0.77,0.61,-4.76,1.87,1.30,51.58,-0.64,571,1,0,0
86583,95484.41,500.09,499.81,0.01,0.77,0.60,-5.07,2.02,1.29,51.86,-0.60,571,1,0,0
86617,95486.49,499.91,499.81,0.01,0.77,0.60,-4.49,1.91,1.23,51.92,-0.72,571,1,0,0
86650,95483.11,500.05,499.81,0.01,0.76,0.60,-4.87,1.88,1.20,51.64,-0.49,571,1,0,0
86692,95488.35,499.74,499.81,0.01,0.77,0.60,-4.43,1.91,1.40,51.98,-0.88,571,1,0,0
86730,95481.26,500.36,499.82,0.00,0.77,0.60,-5.04,1.92,1.14,52.09,-0.19,571,1,0,0
86764,95484.07,500.12,499.82,0.01,0.76,0.61,-4.50,1.78,1.21,51.47,-0.87,571,1,0,0
86797,95482.74,500.05,499.82,0.01,0.76,0.61,-4.87,1.82,1.24,51.58,-0.44,571,1,0,0
86831,95484.79,500.12,499.82,0.00,0.77,0.60,-4.55,1.98,1.34,51.93,-0.26,571,1,0,0
86874,95479.17,500.54,499.83,0.01,0.77,0.60,-4.72,1.91,1.21,52.08,-0.59,571,1,0,0
86907,95485.55,499.99,499.83,0.01,0.77,0.60,-4.89,2.06,1.11,52.03,-0.46,571,1,0,0
86940,95484.79,500.05,499.83,0.01,0.77,0.60,-4.66,1.88,1.21,51.84,-0.86,571,1,0,0
86978,95481.04,500.38,499.83,0.01,0.77,0.60,-4.53,1.93,1.24,52.19,-0.66,571,1,0,0
87012,95486.27,499.92,499.83,0.01,0.77,0.60,-4.82,2.07,1.32,52.23,-0.33,571,1,0,0
87045,95485.92,499.96,499.83,0.01,0.77,0.61,-4.53,1.91,1.46,51.64,-0.37,571,1,0,0
87078,95482.74,500.23,499.84,0.02,0.77,0.60,-4.43,1.98,1.13,52.15,-0.96,571,1,0,0
87112,95479.56,500.51,499.84,0.01,0.77,0.60,-4.77,1.79,1.35,51.97,-0.50,571,1,0,0
87146,95485.17,500.27,499.84,0.01,0.77,0.60,-4.78,1.88,1.37,52.09,-0.62,571,1,0,0
87183,95488.73,499.71,499.84,0.01,0.76,0.60,-4.57,1.96,1.40,51.78,-0.42,571,1,0,0
87217,95485.92,499.96,499.84,0.01,0.77,0.60,-4.85,1.80,1.30,51.85,-0.50,571,1,0,0
87250,95483.47,500.17,499.84,0.01,0.77,0.60,-4.68,1.89,1.27,52.17,-0.45,571,1,0,0
87283,95482.74,499.71,499.84,0.01,0.77,0.60,-4.65,1.94,1.28,51.96,-0.47,571,1,0,0
87317,95485.17,500.02,499.84,0.01,0.77,0.60,-4.75,1.96,1.40,52.06,-0.36,571,1,0,0
87351,95479.94,500.48,499.85,0.01,0.77,0.60,-4.59,1.88,1.17,51.80,-0.70,571,1,0,0
87388,95485.55,499.99,499.85,0.01,0.77,0.60,-4.71,2.04,1.30,52.06,-0.65,571,1,0,0
87421,95485.17,500.27,499.85,0.01,0.77,0.60,-4.72,1.94,1.19,51.84,-0.39,571,1,0,0
87454,95491.53,499.99,499.85,0.01,0.77,0.60,-4.36,1.91,1.52,51.95,-0.34,571,1,0,0
87488,95486.27,499.86,499.85,0.01,0.77,0.60,-5.70,1.74,1.40,52.21,-0.67,571,1,0,0
87521,95486.27,499.92,499.85,0.01,0.76,0.60,-4.23,1.83,1.26,51.92,-0.39,571,1,0,0
87555,95486.64,499.89,499.85,0.01,0.77,0.61,-4.71,1.89,1.56,51.63,-0.43,571,1,0,0
87591,95485.92,500.44,499.86,0.01,0.77,0.60,-4.55,1.70,1.31,52.05,-0.62,571,1,0,0
87625,95486.64,499.71,499.86,0.01,0.77,0.60,-4.20,1.81,1.19,52.25,-0.52,571,1,0,0
87658,95488.73,499.71,499.85,0.01,0.77,0.61,-4.94,1.88,1.32,51.67,-0.79,571,1,0,0
87692,95486.64,499.89,499.85,0.01,0.77,0.60,-4.41,1.78,1.27,52.06,-0.88,571,1,0,0
87725,95483.85,500.14,499.86,0.01,0.77,0.60,-5.01,1.92,1.65,51.86,-0.61,571,1,0,0
87758,95480.32,500.44,499.86,0.01,0.76,0.60,-4.20,1.91,1.36,51.56,-0.40,571,1,0,0
87795,95486.64,500.38,499.86,0.01,0.77,0.60,-4.97,1.85,1.24,52.08,-0.63,571,1,0,0
87829,95483.85,500.17,499.86,0.01,0.76,0.60,-4.70,1.88,1.34,51.53,-0.42,571,1,0,0
87863,95483.85,500.14,499.87,0.00,0.77,0.59,-4.31,1.95,1.30,52.22,-0.22,571,1,0,0
87897,95481.42,500.35,499.87,0.01,0.77,0.59,-5.04,2.01,1.54,52.30,-0.68,571,1,0,0
87930,95481.42,500.35,499.87,0.01,0.77,0.60,-4.49,2.01,1.10,51.98,-0.42,571,1,0,0
87964,95487.38,499.83,499.87,0.01,0.77,0.61,-4.68,1.89,1.34,51.60,-0.74,571,1,0,0
88002,95480.66,500.41,499.87,0.01,0.77,0.60,-4.13,1.95,1.58,52.12,-0.59,571,1,0,0
88036,95484.95,500.04,499.88,0.01,0.77,0.61,-4.85,1.75,1.27,51.57,-0.36,571,1,0,0
88070,95485.30,500.01,499.88,0.01,0.77,0.60,-4.23,1.85,1.28,51.93,-0.49,571,1,0,0
88103,95482.49,500.01,499.88,0.01,0.76,0.60,-4.71,2.15,1.20,51.74,-0.59,571,1,0,0
88137,95487.75,500.29,499.88,0.01,0.77,0.61,-4.87,2.03,1.31,51.68,-0.52,571,1,0,0
88171,95488.10,499.76,499.88,0.01,0.77,0.60,-4.37,1.86,1.40,52.20,-0.49,571,1,0,0
88205,95485.30,500.01,499.88,0.01,0.77,0.59,-4.62,2.04,1.33,52.40,-0.65,571,1,0,0
88242,95484.00,499.66,499.88,0.01,0.77,0.61,-4.47,1.93,1.36,51.70,-0.79,571,1,0,0
88275,95481.20,500.40,499.88,0.01,0.77,0.60,-4.85,1.79,1.42,52.02,-0.34,571,1,0,0
88309,95486.43,499.91,499.88,0.01,0.77,0.60,-4.88,2.01,1.01,51.92,-0.66,571,1,0,0
88343,95487.16,499.85,499.88,0.01,0.76,0.60,-4.22,1.93,1.30,51.93,-0.53,571,1,0,0
88377,95484.35,500.09,499.88,0.01,0.76,0.60,-4.87,2.11,1.41,51.84,-0.69,571,1,0,0
88411,95484.35,500.09,499.88,0.01,0.78,0.60,-4.46,2.11,1.33,52.53,-0.63,571,1,0,0
88449,95489.61,499.63,499.88,0.01,0.77,0.60,-4.78,2.02,1.21,51.83,-0.50,571,1,0,0
88482,95485.49,499.99,499.88,0.02,0.77,0.59,-4.65,2.06,1.53,52.53,-1.13,571,1,0,0
88516,95487.53,499.82,499.88,0.00,0.77,0.60,-4.55,1.94,1.40,52.11,-0.20,571,1,0,0
88550,95482.67,499.99,499.88,0.01,0.76,0.61,-4.51,2.08,1.17,51.55,-0.88,571,1,0,0
88592,95485.49,499.99,499.88,0.01,0.77,0.60,-4.72,1.88,1.35,52.07,-0.64,571,1,0,0
88626,95484.73,500.06,499.88,0.01,0.77,0.61,-4.57,1.89,1.17,51.98,-0.65,571,1,0,0
88664,95486.18,499.82,499.88,0.01,0.77,0.60,-4.52,1.88,1.24,51.84,-0.62,571,1,0,0
88697,95483.38,500.24,499.89,0.01,0.77,0.60,-4.63,1.85,1.57,51.89,-0.44,571,1,0,0
88731,95485.86,499.96,499.89,0.01,0.77,0.61,-4.49,1.95,1.39,51.73,-0.47,571,1,0,0
88765,95480.57,500.42,499.89,0.00,0.77,0.60,-4.81,1.82,1.30,52.16,-0.16,571,1,0,0
88808,95484.50,500.08,499.89,0.01,0.77,0.60,-4.73,1.95,1.34,51.79,-0.62,571,1,0,0
88842,95484.13,500.15,499.89,0.01,0.77,0.60,-4.87,1.98,1.18,52.05,-0.33,571,1,0,0
88880,95486.56,499.90,499.89,0.01,0.77,0.60,-4.52,1.79,1.47,52.18,-0.72,571,1,0,0
88913,95479.28,500.54,499.89,0.01,0.77,0.60,-4.55,1.99,1.43,52.15,-0.46,571,1,0,0
88947,95476.09,500.08,499.90,0.01,0.77,0.60,-4.59,1.75,1.43,52.15,-0.70,571,1,0,0
88981,95484.50,500.36,499.90,0.01,0.77,0.61,-4.48,1.82,1.33,51.54,-0.60,571,1,0,0
89015,95487.69,499.83,499.90,0.01,0.77,0.60,-4.41,1.74,1.13,51.94,-0.50,571,1,0,0
89049,95485.24,500.02,499.90,0.01,0.77,0.59,-4.58,1.83,1.25,52.39,-0.69,571,1,0,0
89085,95485.24,500.54,499.90,0.01,0.77,0.60,-4.72,1.96,1.24,52.12,-0.62,571,1,0,0
89119,95482.08,500.26,499.90,0.01,0.76,0.60,-4.71,1.76,1.37,51.63,-0.30,571,1,0,0
89153,95488.42,499.74,499.90,0.01,0.77,0.60,-4.64,1.99,1.31,52.19,-0.60,571,1,0,0
89187,95488.80,499.70,499.90,0.01,0.77,0.60,-4.50,1.98,1.38,52.15,-0.62,571,1,0,0
89221,95485.24,500.02,499.90,0.01,0.77,0.60,-5.00,1.98,1.20,52.23,-0.65,571,1,0,0
89254,95483.57,500.16,499.90,0.01,0.77,0.61,-4.80,1.75,1.40,51.26,-0.71,571,1,0,0
89292,95489.55,499.64,499.90,0.01,0.77,0.60,-4.55,1.99,1.39,52.02,-0.62,571,1,0,0
89325,95484.25,500.10,499.90,0.01,0.77,0.60,-5.00,1.98,1.56,52.01,-0.66,571,1,0,0
89359,95484.25,500.10,499.90,0.00,0.77,0.61,-4.55,1.95,1.25,51.83,-0.19,571,1,0,0
89393,95480.75,500.41,499.91,0.01,0.76,0.60,-4.81,1.66,1.26,51.67,-0.52,571,1,0,0
89426,95481.46,500.28,499.91,0.01,0.77,0.60,-4.58,2.04,1.20,51.84,-0.66,571,1,0,0
89460,95483.32,500.25,499.91,0.01,0.77,0.59,-4.65,1.85,1.27,52.28,-0.74,571,1,0,0
89494,95482.96,500.21,499.91,0.01,0.77,0.60,-4.78,1.82,1.28,52.12,-0.60,571,1,0,0
89532,95480.16,499.97,499.91,0.01,0.76,0.60,-4.70,1.96,1.35,51.68,-0.66,571,1,0,0
89566,95485.39,499.51,499.91,0.02,0.77,0.60,-4.66,1.82,1.11,52.37,-0.93,571,1,0,0
89600,95482.21,500.28,499.91,0.01,0.76,0.60,-4.77,2.06,1.37,51.80,-0.60,571,1,0,0
89632,95484.44,500.08,499.91,0.01,0.76,0.61,-4.59,1.91,1.41,51.54,-0.49,571,1,0,0
89666,95482.02,500.30,499.91,0.01,0.77,0.60,-4.62,2.07,1.24,51.84,-0.76,571,1,0,0
89700,95487.63,499.81,499.91,0.01,0.77,0.59,-4.81,1.82,1.28,52.26,-0.48,571,1,0,0
89738,95488.35,499.74,499.91,0.01,0.77,0.60,-4.65,1.68,1.49,52.18,-0.32,571,1,0,0
89772,95482.74,500.23,499.91,0.01,0.77,0.60,-4.81,2.06,1.16,52.22,-0.76,571,1,0,0
89805,95485.55,499.99,499.91,0.01,0.76,0.60,-4.81,1.79,1.22,51.69,-0.62,571,1,0,0
89839,95477.49,500.69,499.92,0.01,0.76,0.60,-4.69,1.99,1.34,51.77,-0.81,571,1,0,0
89873,95483.47,500.17,499.92,0.01,0.77,0.60,-4.66,1.90,1.16,52.19,-0.63,571,1,0,0
89907,95481.04,500.41,499.92,0.01,0.76,0.60,-4.71,1.87,1.30,51.76,-0.58,571,1,0,0
89944,95482.14,500.29,499.92,0.01,0.77,0.61,-4.56,1.96,1.31,51.69,-0.36,571,1,0,0
89977,95472.97,501.09,499.93,0.01,0.77,0.60,-4.66,1.83,1.45,52.09,-0.36,571,1,0,0
90011,95487.38,500.32,499.93,0.01,0.77,0.60,-4.66,1.90,1.44,51.75,-0.79,571,1,0,0
90045,95494.13,499.24,499.93,0.02,0.77,0.60,-4.79,1.97,1.40,52.16,-0.99,571,1,0,0
90079,95483.25,500.19,499.93,0.01,0.76,0.60,-4.60,1.96,1.14,51.88,-0.53,571,1,0,0
90113,95489.24,499.66,499.93,0.01,0.77,0.60,-4.51,1.91,1.61,52.09,-0.51,571,1,0,0
90149,95481.55,500.16,499.93,0.01,0.77,0.60,-4.68,1.86,1.27,52.22,-0.40,571,1,0,0
90183,95488.86,499.66,499.93,0.01,0.77,0.60,-4.64,2.32,1.32,52.08,-0.57,571,1,0,0
90217,95483.97,500.13,499.93,0.01,0.77,0.60,-4.85,1.89,1.34,51.82,-0.49,571,1,0,0
90251,95485.83,499.96,499.93,0.00,0.77,0.60,-4.63,1.88,1.50,52.08,-0.27,571,1,0,0
90285,95478.74,500.58,499.93,0.01,0.77,0.59,-4.77,2.10,1.34,52.41,-0.57,571,1,0,0
90318,95488.64,499.72,499.93,0.01,0.77,0.60,-4.79,1.96,1.40,52.32,-0.47,571,1,0,0
90355,95483.03,500.21,499.93,0.01,0.77,0.59,-4.75,1.92,1.52,52.51,-0.65,571,1,0,0
90389,95483.75,500.15,499.93,0.00,0.77,0.60,-4.92,2.01,1.34,52.25,-0.19,571,1,0,0
90423,95483.75,500.15,499.93,0.01,0.77,0.61,-4.71,2.03,1.62,51.76,-0.73,571,1,0,0
90457,95483.03,500.45,499.94,0.01,0.77,0.59,-4.52,1.94,1.46,52.48,-0.52,571,1,0,0
90500,95479.97,500.60,499.94,0.01,0.78,0.60,-4.60,1.92,1.28,52.31,-0.71,571,1,0,0
90533,95484.85,500.05,499.94,0.02,0.77,0.60,-4.73,2.07,1.14,51.83,-0.94,571,1,0,0
90570,95485.96,500.20,499.94,0.01,0.77,0.60,-4.71,1.76,1.34,52.16,-0.63,571,1,0,0
90604,95486.34,500.23,499.94,0.01,0.77,0.60,-4.62,2.01,1.37,51.89,-0.73,571,1,0,0
90638,95481.10,500.21,499.94,0.01,0.77,0.60,-4.61,1.89,1.39,52.20,-0.63,571,1,0,0
90672,95487.82,499.79,499.94,0.02,0.77,0.60,-4.63,1.74,1.21,52.36,-1.09,571,1,0,0
90715,95485.77,499.97,499.94,0.01,0.77,0.60,-4.67,2.09,1.13,51.98,-0.54,571,1,0,0
90748,95482.96,500.21,499.95,0.01,0.77,0.60,-4.61,1.95,1.31,52.17,-0.76,571,1,0,0
90782,95483.34,499.94,499.95,0.01,0.77,0.60,-4.63,1.86,1.23,52.12,-0.50,571,1,0,0
90820,95486.46,499.91,499.95,0.01,0.77,0.60,-4.65,2.04,1.25,51.72,-0.60,571,1,0,0
90853,95488.58,499.72,499.94,0.01,0.77,0.60,-4.72,2.15,1.50,52.04,-0.33,571,1,0,0
90887,95483.34,500.43,499.95,0.01,0.77,0.59,-4.67,1.72,1.46,52.39,-0.66,571,1,0,0
90920,95483.66,499.84,499.95,0.01,0.77,0.60,-4.70,2.11,1.37,51.70,-0.87,571,1,0,0
90954,95484.42,500.15,499.95,0.01,0.76,0.60,-4.52,2.04,1.40,51.81,-0.56,571,1,0,0
90988,95481.23,500.36,499.95,0.01,0.77,0.60,-4.85,1.89,1.44,52.02,-0.42,571,1,0,0
91025,95488.32,499.99,499.95,0.01,0.77,0.60,-4.66,1.89,1.37,52.33,-0.49,571,1,0,0
91059,95485.17,499.71,499.95,0.01,0.77,0.60,-4.74,2.14,1.43,51.97,-0.47,571,1,0,0
91092,95491.13,499.50,499.95,0.01,0.77,0.60,-4.62,1.89,1.53,52.09,-0.82,571,1,0,0
91126,95486.27,499.92,499.95,0.01,0.77,0.60,-4.62,1.94,1.53,52.10,-0.65,571,1,0,0
91160,95485.89,499.96,499.95,0.01,0.77,0.60,-4.54,1.65,1.52,52.09,-0.56,571,1,0,0
91194,95488.32,499.75,499.94,0.01,0.77,0.60,-4.59,2.01,1.26,52.19,-0.85,571,1,0,0
91231,95486.64,499.89,499.94,0.01,0.77,0.59,-4.64,1.83,1.29,52.37,-0.72,571,1,0,0
91265,95478.24,500.63,499.95,0.01,0.77,0.60,-4.56,1.82,1.50,51.84,-0.69,571,1,0,0
91298,95484.92,500.04,499.95,0.01,0.77,0.60,-4.87,1.72,1.33,52.13,-0.49,571,1,0,0
91332,95485.67,499.98,499.95,0.01,0.77,0.60,-4.69,1.98,1.29,52.14,-0.56,571,1,0,0
91366,95488.48,499.73,499.95,0.00,0.77,0.60,-4.84,2.01,1.56,52.26,-0.21,571,1,0,0
91400,95486.39,500.16,499.95,0.01,0.77,0.60,-4.80,1.96,1.37,52.11,-0.62,571,1,0,0
91437,95483.60,500.16,499.95,0.01,0.77,0.60,-4.77,1.97,1.46,52.32,-0.36,571,1,0,0
91470,95482.86,500.22,499.95,0.01,0.77,0.60,-4.74,1.95,1.53,52.00,-0.39,571,1,0,0
91504,95483.97,500.62,499.95,-0.00,0.77,0.60,-4.41,1.85,1.33,52.03,0.01,571,1,0,0
91538,95483.25,500.37,499.96,0.01,0.77,0.60,-4.78,1.85,1.32,51.95,-0.57,571,1,0,0
91572,95481.54,500.30,499.96,0.01,0.77,0.59,-4.64,1.69,1.17,52.39,-0.53,571,1,0,0
91604,95482.30,500.27,499.96,0.01,0.77,0.60,-4.65,1.78,1.51,52.06,-0.52,571,1,0,0
91642,95484.35,500.03,499.96,0.01,0.77,0.59,-4.70,1.91,1.53,52.33,-0.76,571,1,0,0
91676,95480.22,500.39,499.96,0.01,0.77,0.60,-4.68,1.87,1.27,52.12,-0.74,571,1,0,0
91710,95482.30,500.27,499.96,0.01,0.76,0.60,-4.77,1.74,1.36,51.96,-0.60,571,1,0,0
91743,95486.56,499.90,499.96,0.01,0.77,0.60,-4.82,1.86,1.37,51.85,-0.76,571,1,0,0
91777,95480.94,500.39,499.96,0.01,0.76,0.61,-4.71,2.02,1.39,51.30,-0.57,571,1,0,0
91810,95486.56,499.90,499.96,0.01,0.77,0.60,-4.53,1.81,1.32,52.23,-0.33,571,1,0,0
91848,95483.03,500.21,499.96,0.01,0.78,0.60,-4.63,1.96,1.38,52.13,-0.63,571,1,0,0
91881,95485.61,499.98,499.96,0.01,0.77,0.60,-4.85,1.76,1.24,52.00,-0.54,571,1,0,0
91915,95484.47,500.08,499.96,0.01,0.77,0.60,-4.75,1.96,1.37,52.19,-0.76,571,1,0,0
91949,95490.85,499.52,499.96,0.01,0.77,0.60,-4.75,1.91,1.40,51.80,-0.70,571,1,0,0
91982,95480.38,500.44,499.96,0.01,0.77,0.60,-4.64,2.06,1.31,52.02,-0.31,571,1,0,0
92016,95480.72,500.68,499.97,0.01,0.77,0.60,-4.67,2.09,1.33,51.85,-0.69,571,1,0,0
92050,95486.33,500.47,499.97,0.01,0.77,0.60,-4.63,1.80,1.31,51.92,-0.76,571,1,0,0
92087,95484.25,500.10,499.97,0.01,0.77,0.60,-4.75,1.89,1.41,52.05,-0.52,571,1,0,0
92121,95481.45,500.35,499.97,0.01,0.77,0.60,-4.98,1.69,1.29,51.92,-0.40,571,1,0,0
92154,95485.74,500.35,499.97,0.00,0.77,0.60,-4.71,2.05,1.27,51.99,-0.29,571,1,0,0
92188,95488.54,499.76,499.97,0.01,0.77,0.61,-4.82,1.83,1.46,51.79,-0.50,571,1,0,0
92221,95488.54,499.73,499.97,0.01,0.77,0.60,-4.71,2.00,1.46,52.04,-0.53,571,1,0,0
92255,95478.07,500.64,499.97,0.01,0.77,0.61,-4.74,1.72,1.40,51.76,-0.73,571,1,0,0
92293,95483.31,500.18,499.98,0.01,0.77,0.60,-4.58,1.88,1.50,52.30,-0.63,571,1,0,0
92326,95478.07,500.71,499.98,0.01,0.77,0.60,-4.72,1.94,1.09,51.89,-0.44,571,1,0,0
92359,95489.30,499.66,499.98,0.01,0.77,0.60,-4.79,1.85,1.42,52.05,-0.47,571,1,0,0
92402,95490.02,499.60,499.98,0.01,0.77,0.61,-4.78,1.82,1.45,51.77,-0.67,571,1,0,0
92436,95485.51,499.99,499.98,0.01,0.77,0.60,-4.68,1.91,1.26,51.98,-0.62,571,1,0,0
92470,95481.60,500.33,499.98,0.01,0.76,0.59,-4.68,1.82,1.11,52.29,-0.35,571,1,0,0
92507,95488.32,499.75,499.98,0.01,0.77,0.59,-4.64,2.01,1.24,52.31,-0.45,571,1,0,0
92540,95484.78,500.06,499.98,0.01,0.77,0.60,-4.77,1.90,1.25,52.07,-0.60,571,1,0,0
92574,95487.94,499.78,499.98,0.01,0.77,0.60,-4.71,1.94,1.38,52.06,-0.59,571,1,0,0
92608,95483.82,500.14,499.98,0.01,0.77,0.60,-4.71,1.94,1.41,51.94,-0.42,571,1,0,0
92651,95483.08,500.11,499.98,0.01,0.77,0.60,-4.72,1.95,1.20,52.16,-0.52,571,1,0,0
92685,95485.29,500.01,499.98,0.01,0.77,0.60,-4.83,1.91,1.23,51.81,-0.49,571,1,0,0
92722,95483.08,499.96,499.98,0.00,0.77,0.61,-4.75,1.75,1.34,51.51,-0.09,571,1,0,0
92755,95489.80,500.22,499.98,0.01,0.77,0.60,-4.78,1.97,1.11,52.06,-0.80,571,1,0,0
92789,95488.85,499.70,499.98,0.02,0.76,0.60,-4.67,2.01,1.24,52.04,-0.92,571,1,0,0
92823,95481.76,500.32,499.98,0.00,0.77,0.60,-4.77,2.11,1.42,52.24,-0.20,571,1,0,0
92856,95482.49,500.26,499.98,0.01,0.77,0.60,-4.76,1.86,1.24,52.20,-0.52,571,1,0,0
92890,95486.42,499.91,499.98,0.01,0.77,0.60,-4.72,1.85,1.34,51.74,-0.72,571,1,0,0
92928,95485.67,499.98,499.98,0.01,0.77,0.60,-4.76,1.92,1.30,52.16,-0.47,571,1,0,0
92961,95486.42,499.91,499.98,0.01,0.77,0.60,-4.68,1.90,1.11,52.11,-0.54,571,1,0,0
92994,95486.05,499.94,499.98,0.01,0.76,0.61,-4.93,2.04,1.38,51.58,-0.59,571,1,0,0
93028,95489.58,499.64,499.98,0.01,0.77,0.60,-4.43,1.88,1.26,52.08,-0.43,571,1,0,0
93062,95480.82,500.40,499.98,0.01,0.77,0.60,-4.94,1.78,1.37,52.15,-0.59,571,1,0,0
93095,95481.89,499.82,499.98,0.01,0.78,0.60,-4.52,1.82,1.11,52.28,-0.63,571,1,0,0
93132,95489.92,499.61,499.98,0.01,0.77,0.60,-5.00,1.96,1.54,51.86,-0.72,571,1,0,0
93166,95483.96,500.13,499.98,0.01,0.77,0.61,-4.52,1.92,1.30,51.74,-0.57,571,1,0,0
93200,95487.12,499.85,499.98,0.01,0.77,0.60,-4.85,1.82,1.10,52.20,-0.59,571,1,0,0
93233,95482.27,500.27,499.98,-0.00,0.77,0.60,-4.65,1.81,1.18,52.21,0.03,571,1,0,0
93266,95484.69,499.78,499.98,0.01,0.77,0.60,-4.76,1.92,1.32,52.24,-0.73,571,1,0,0
93300,95485.80,500.03,499.98,0.01,0.77,0.60,-4.70,1.76,1.41,52.28,-0.40,571,1,0,0
93334,95485.07,500.03,499.98,0.01,0.77,0.60,-4.71,1.82,1.35,52.05,-0.52,571,1,0,0
93371,95486.17,499.69,499.98,0.01,0.77,0.60,-4.89,1.98,1.28,51.71,-0.76,571,1,0,0
93405,95488.60,499.23,499.97,0.01,0.77,0.59,-4.56,1.96,1.38,52.27,-0.58,571,1,0,0
93438,95486.17,499.90,499.97,0.01,0.77,0.60,-4.59,1.82,1.24,52.24,-0.55,571,1,0,0
93472,95486.92,499.87,499.97,0.01,0.76,0.60,-4.91,1.71,1.34,51.86,-0.37,571,1,0,0
93505,95480.56,500.42,499.97,0.01,0.77,0.60,-4.78,2.00,1.43,52.07,-0.42,571,1,0,0
93539,95486.92,499.87,499.97,0.00,0.77,0.60,-4.84,2.04,1.40,51.99,-0.22,571,1,0,0
93577,95484.50,500.11,499.98,0.01,0.77,0.60,-4.75,2.01,1.14,52.28,-0.53,571,1,0,0
93609,95484.82,500.05,499.98,0.00,0.77,0.60,-4.46,1.79,1.42,52.26,-0.24,571,1,0,0
93643,95483.74,500.15,499.98,0.01,0.77,0.60,-4.94,1.96,1.14,51.99,-0.42,571,1,0,0
93677,95480.94,500.39,499.98,0.01,0.77,0.60,-4.29,2.01,1.37,52.03,-0.66,571,1,0,0
93711,95487.31,499.83,499.98,0.01,0.77,0.60,-4.88,1.81,1.25,52.10,-0.76,571,1,0,0
93744,95476.39,500.79,499.98,0.01,0.77,0.60,-4.64,1.90,1.43,51.99,-0.66,571,1,0,0
93782,95484.82,500.05,499.98,0.01,0.76,0.60,-4.84,1.89,1.50,51.92,-0.33,571,1,0,0
93815,95485.57,499.98,499.98,0.01,0.77,0.61,-4.75,1.86,1.21,51.76,-0.67,571,1,0,0
93848,95482.77,500.23,499.98,0.01,0.77,0.60,-4.78,1.66,1.18,51.87,-0.47,571,1,0,0
93882,95485.96,499.95,499.98,0.00,0.77,0.61,-4.85,1.95,1.22,51.62,-0.13,571,1,0,0
93916,95483.86,499.92,499.98,0.01,0.77,0.60,-4.56,1.97,1.61,51.91,-0.39,571,1,0,0
93949,95486.33,499.92,499.98,0.01,0.77,0.59,-4.68,1.83,1.42,52.24,-0.72,571,1,0,0
93986,95481.44,500.35,499.98,0.01,0.77,0.60,-4.73,1.95,1.23,52.03,-0.73,571,1,0,0
94020,95480.71,500.41,499.98,0.01,0.77,0.60,-4.64,1.96,1.50,51.91,-0.80,571,1,0,0
94054,95487.05,500.13,499.98,0.01,0.77,0.60,-4.52,1.93,1.23,52.01,-0.49,571,1,0,0
94087,95487.05,499.82,499.98,0.02,0.77,0.59,-4.78,1.96,1.40,52.40,-0.92,571,1,0,0
94120,95478.64,500.59,499.99,0.01,0.77,0.60,-4.45,1.86,1.12,52.06,-0.45,571,1,0,0
94154,95487.05,499.86,499.99,0.01,0.77,0.60,-4.77,1.93,1.17,52.10,-0.50,571,1,0,0
94191,95489.86,500.10,499.99,0.01,0.76,0.61,-4.54,2.01,1.29,51.52,-0.63,571,1,0,0
94225,95485.00,500.17,499.99,0.01,0.77,0.60,-4.90,1.95,1.20,52.10,-0.34,571,1,0,0
94258,95484.03,500.25,499.99,0.01,0.77,0.61,-4.76,1.90,1.37,51.64,-0.64,571,1,0,0
94300,95482.92,500.22,499.99,0.01,0.77,0.59,-4.69,1.95,1.37,52.40,-0.43,571,1,0,0
94333,95489.26,499.66,499.99,0.01,0.77,0.60,-4.53,1.90,1.36,52.07,-0.56,571,1,0,0
94367,95483.64,500.15,499.99,0.01,0.77,0.60,-4.69,1.69,1.28,51.84,-0.42,571,1,0,0
94416,95481.22,500.36,499.99,0.01,0.77,0.60,-4.65,1.64,1.08,52.39,-0.72,571,1,0,0
94451,95483.64,500.15,499.99,0.00,0.77,0.59,-4.77,1.74,1.22,52.27,-0.25,571,1,0,0
94487,95487.21,499.91,499.99,0.01,0.77,0.60,-4.55,1.79,1.34,52.04,-0.44,571,1,0,0
94523,95487.56,499.81,499.99,0.01,0.77,0.59,-4.83,1.84,1.33,52.24,-0.76,571,1,0,0
94569,95480.49,500.40,499.99,0.01,0.77,0.60,-4.77,2.08,1.37,52.12,-0.46,571,1,0,0
94605,95490.02,499.60,499.99,0.01,0.77,0.59,-4.57,1.94,1.46,52.50,-0.66,571,1,0,0
94641,95493.17,499.54,499.99,0.01,0.76,0.60,-5.03,2.01,1.27,51.76,-0.32,571,1,0,0
94680,95475.99,499.60,499.99,0.01,0.77,0.60,-4.34,2.01,1.23,52.06,-0.30,571,1,0,0
94716,95479.89,500.48,499.99,0.01,0.77,0.60,-4.91,1.82,1.21,52.19,-0.81,571,1,0,0
94752,95484.75,500.06,499.99,0.00,0.77,0.60,-4.28,1.95,1.34,51.99,-0.03,571,1,0,0
94788,95487.94,499.78,499.99,0.01,0.77,0.59,-4.67,1.72,1.25,52.63,-0.49,571,1,0,0
94825,95480.27,500.45,499.99,0.01,0.77,0.60,-4.81,1.99,1.31,52.08,-0.58,571,1,0,0
94861,95485.50,500.02,499.99,0.01,0.77,0.60,-4.69,2.06,1.24,51.86,-0.59,571,1,0,0
94901,95482.32,499.47,499.99,0.01,0.77,0.60,-4.53,2.07,1.40,52.15,-0.56,571,1,0,0
94937,95483.46,500.17,499.99,0.00,0.77,0.60,-4.45,1.82,1.28,51.77,-0.27,571,1,0,0
94972,95480.64,500.42,499.99,0.01,0.77,0.60,-4.85,1.77,1.42,51.79,-0.49,571,1,0,0
95009,95481.37,500.35,499.99,0.02,0.77,0.60,-4.63,1.96,1.24,51.90,-1.04,571,1,0,0
95045,95484.17,500.11,499.99,0.00,0.77,0.60,-5.17,1.90,1.24,52.17,-0.27,571,1,0,0
95081,95479.89,500.48,499.99,0.01,0.77,0.60,-4.65,1.88,1.32,51.74,-0.37,571,1,0,0
95121,95485.88,499.96,499.99,0.01,0.77,0.60,-4.85,2.00,1.36,52.14,-0.67,571,1,0,0
95158,95481.72,500.32,499.99,0.01,0.77,0.60,-4.49,1.78,0.99,52.04,-0.49,571,1,0,0
95194,95484.53,500.29,500.00,0.01,0.77,0.60,-4.88,1.71,1.39,52.24,-0.75,571,1,0,0
95229,95482.10,500.29,500.00,0.01,0.77,0.59,-4.65,1.94,1.24,52.25,-0.46,571,1,0,0
95265,95479.29,500.04,500.00,0.01,0.76,0.60,-4.95,2.03,1.37,51.98,-0.76,571,1,0,0
95302,95481.72,500.32,500.00,0.01,0.77,0.59,-4.54,1.85,1.23,52.26,-0.71,571,1,0,0
95342,95482.47,500.26,500.00,0.01,0.77,0.59,-4.76,1.76,1.44,52.62,-0.46,571,1,0,0
95378,95477.21,500.72,500.00,0.01,0.77,0.60,-4.59,1.71,1.31,52.18,-0.60,571,1,0,0
95414,95482.47,500.26,500.00,0.01,0.77,0.60,-4.59,1.92,1.21,52.11,-0.73,571,1,0,0
95450,95488.09,499.76,500.00,0.01,0.77,0.60,-5.10,1.82,1.23,52.31,-0.73,571,1,0,0
95486,95476.49,500.65,500.00,0.01,0.77,0.59,-4.47,1.81,1.27,52.28,-0.30,571,1,0,0
95522,95474.05,500.99,500.01,0.01,0.77,0.60,-4.91,1.74,1.23,52.16,-0.79,571,1,0,0
95562,95482.82,500.23,500.01,0.01,0.77,0.60,-4.81,1.90,1.53,52.06,-0.81,571,1,0,0
95598,95483.96,499.88,500.01,0.01,0.77,0.60,-4.56,1.85,1.39,52.20,-0.67,571,1,0,0
95634,95483.58,500.16,500.01,0.01,0.77,0.61,-5.04,1.88,1.43,51.82,-0.60,571,1,0,0
95671,95481.15,499.88,500.01,0.01,0.77,0.59,-4.66,2.01,1.11,52.44,-0.59,571,1,0,0
95707,95481.53,500.34,500.01,0.01,0.77,0.60,-4.78,1.85,1.42,52.15,-0.52,571,1,0,0
95742,95487.49,499.82,500.01,0.01,0.77,0.59,-4.54,2.04,1.33,52.54,-0.58,571,1,0,0
95782,95484.68,500.06,500.01,0.01,0.76,0.59,-4.78,1.61,1.32,52.11,-0.55,571,1,0,0
95818,95481.88,500.37,500.01,0.00,0.77,0.60,-4.58,1.92,1.20,52.22,-0.23,571,1,0,0
95855,95481.53,500.34,500.01,0.01,0.77,0.60,-4.71,1.95,1.29,52.14,-0.41,571,1,0,0
95891,95487.86,500.31,500.01,0.02,0.77,0.60,-4.71,1.59,1.22,52.16,-0.92,571,1,0,0
95927,95487.14,499.85,500.01,0.01,0.77,0.60,-4.49,1.79,1.38,52.02,-0.44,571,1,0,0
95963,95485.07,500.03,500.01,0.01,0.77,0.61,-5.10,2.11,1.42,51.84,-0.56,571,1,0,0
96000,95482.25,500.27,500.01,0.01,0.77,0.60,-4.35,1.97,1.32,52.19,-0.47,571,1,0,0
96039,95480.17,500.46,500.02,0.01,0.76,0.60,-4.98,1.92,1.37,51.84,-0.32,571,1,0,0
96075,95489.32,499.66,500.01,0.01,0.77,0.61,-4.49,1.90,1.28,51.91,-0.53,571,1,0,0
96111,95482.25,500.18,500.01,0.01,0.77,0.60,-4.76,1.95,1.46,52.01,-0.46,571,1,0,0
96147,95480.17,500.46,500.02,0.01,0.76,0.60,-5.12,1.94,1.34,52.05,-0.53,571,1,0,0
96184,95477.74,500.46,500.02,0.01,0.77,0.60,-4.66,1.95,1.15,52.01,-0.50,571,1,0,0
96220,95480.89,500.39,500.02,0.01,0.77,0.59,-4.56,2.23,1.11,52.48,-0.45,571,1,0,0
96260,95482.75,500.23,500.02,0.00,0.77,0.59,-4.75,1.96,1.40,52.56,-0.22,571,1,0,0
96305,95487.64,500.33,500.02,0.01,0.77,0.60,-4.90,1.96,1.33,52.38,-0.66,571,1,0,0
96340,95490.07,499.59,500.02,0.00,0.76,0.60,-4.78,1.96,1.47,51.81,-0.27,571,1,0,0
96376,95484.83,500.05,500.02,0.01,0.77,0.60,-4.36,1.86,1.23,52.11,-0.35,571,1,0,0
96412,95479.60,500.51,500.02,0.01,0.76,0.60,-4.82,1.85,1.16,51.63,-0.69,571,1,0,0
96449,95488.02,499.77,500.02,0.01,0.77,0.59,-4.53,2.04,1.24,52.59,-0.68,571,1,0,0
96489,95485.21,500.02,500.02,0.01,0.77,0.59,-4.80,2.08,1.35,52.37,-0.40,571,1,0,0
96525,95479.22,499.74,500.02,0.01,0.77,0.59,-4.46,1.88,1.57,52.29,-0.59,571,1,0,0
96561,95484.46,500.08,500.02,0.01,0.77,0.60,-4.72,1.91,1.24,51.99,-0.55,571,1,0,0
96607,95488.02,499.77,500.02,0.01,0.77,0.60,-4.96,1.88,1.47,51.93,-0.30,571,1,0,0
96643,95485.57,499.99,500.02,0.01,0.77,0.60,-4.78,1.88,1.40,51.94,-0.86,571,1,0,0
96679,95484.83,500.02,500.02,0.01,0.77,0.60,-4.47,2.08,1.35,52.22,-0.84,571,1,0,0
96719,95482.41,499.61,500.02,0.00,0.77,0.60,-4.71,1.62,1.27,52.02,-0.19,571,1,0,0
96755,95484.83,500.05,500.02,0.01,0.77,0.60,-4.52,1.72,1.25,52.11,-0.66,571,1,0,0
96791,95486.32,499.68,500.02,0.01,0.77,0.60,-4.84,1.86,1.48,51.97,-0.73,571,1,0,0
96827,95485.94,499.95,500.02,0.01,0.78,0.60,-4.61,1.92,1.34,52.08,-0.85,571,1,0,0
96863,95484.24,500.10,500.02,0.00,0.77,0.60,-4.82,1.99,1.25,51.85,-0.20,571,1,0,0
96900,95478.97,500.56,500.02,0.01,0.77,0.60,-4.54,1.81,1.41,52.25,-0.82,571,1,0,0
96940,95481.42,500.28,500.02,0.01,0.77,0.60,-4.88,1.82,1.08,52.10,-0.80,571,1,0,0
96975,95478.63,500.59,500.02,0.01,0.77,0.59,-4.71,1.91,1.42,52.64,-0.30,571,1,0,0
97011,95488.89,499.48,500.02,0.01,0.77,0.60,-4.73,1.84,1.22,52.01,-0.39,571,1,0,0
97047,95488.52,499.73,500.02,0.01,0.77,0.60,-4.67,1.68,1.16,51.85,-0.76,571,1,0,0
97083,95488.52,499.97,500.02,0.02,0.77,0.60,-4.91,1.88,1.21,52.42,-0.94,571,1,0,0
97120,95482.53,500.25,500.02,0.01,0.77,0.59,-4.63,2.03,1.29,52.21,-0.30,571,1,0,0
97160,95483.28,500.19,500.02,0.01,0.77,0.59,-4.49,1.75,1.24,52.34,-0.57,571,1,0,0
97196,95485.72,499.97,500.02,0.01,0.77,0.60,-4.40,1.96,1.42,52.08,-0.65,571,1,0,0
97231,95486.44,499.91,500.02,0.01,0.77,0.60,-4.98,2.12,1.30,51.84,-0.44,571,1,0,0
97267,95488.89,499.70,500.02,0.01,0.77,0.59,-4.37,1.91,1.30,52.21,-0.45,571,1,0,0
97303,95486.82,500.12,500.02,0.00,0.77,0.59,-5.20,2.06,1.30,52.63,-0.22,571,1,0,0
97340,95480.48,500.43,500.02,0.01,0.77,0.60,-4.44,2.02,1.40,51.83,-0.57,571,1,0,0
97376,95484.01,499.88,500.02,0.01,0.77,0.60,-5.09,1.85,1.33,52.38,-0.43,571,1,0,0
97416,95484.01,500.12,500.02,0.01,0.77,0.60,-4.56,2.02,1.27,52.05,-0.72,571,1,0,0
97452,95483.03,500.21,500.02,0.01,0.77,0.60,-4.72,1.84,1.14,51.87,-0.50,571,1,0,0
97487,95490.00,499.60,500.02,0.01,0.77,0.59,-4.54,1.79,1.37,52.60,-0.36,571,1,0,0
97523,95487.57,499.75,500.02,0.01,0.77,0.60,-5.00,1.98,1.31,52.07,-0.60,571,1,0,0
97559,95487.20,499.84,500.02,0.01,0.77,0.60,-4.65,1.91,1.24,52.07,-0.50,571,1,0,0
97596,95485.85,500.17,500.02,0.01,0.77,0.60,-4.60,1.75,1.25,52.08,-0.50,571,1,0,0
97635,95480.22,499.96,500.02,0.01,0.77,0.60,-4.54,2.16,1.43,51.70,-0.66,571,1,0,0
97672,95482.66,500.24,500.02,0.01,0.77,0.60,-4.90,1.88,1.14,52.06,-0.56,571,1,0,0
97708,95485.85,499.96,500.02,0.01,0.77,0.60,-4.62,1.87,1.30,52.27,-0.70,571,1,0,0
97743,95489.40,499.65,500.02,0.01,0.77,0.60,-4.72,1.92,1.18,52.14,-0.46,571,1,0,0
97779,95494.27,499.23,500.01,0.01,0.77,0.61,-4.64,2.11,1.44,51.60,-0.53,571,1,0,0
97815,95483.78,500.14,500.01,0.01,0.77,0.60,-4.75,1.95,1.47,52.10,-0.40,571,1,0,0
97855,95484.51,499.90,500.01,0.01,0.77,0.60,-4.76,1.99,1.09,51.87,-0.83,571,1,0,0
97891,95484.17,500.11,500.01,0.01,0.77,0.59,-4.81,1.75,1.38,52.63,-0.63,571,1,0,0
97928,95484.51,500.33,500.02,0.01,0.77,0.60,-4.30,1.96,1.34,52.27,-0.76,571,1,0,0
97964,95480.98,500.39,500.02,0.01,0.77,0.60,-4.94,1.84,1.36,52.03,-0.36,571,1,0,0
97999,95484.51,500.08,500.02,0.01,0.77,0.60,-4.65,1.94,1.46,52.23,-0.62,571,1,0,0
98035,95485.64,500.05,500.02,0.01,0.77,0.59,-4.58,1.86,1.21,52.34,-0.66,571,1,0,0
98075,95481.36,499.73,500.02,0.00,0.77,0.60,-4.65,2.11,1.24,52.02,-0.23,571,1,0,0
98111,95485.27,500.01,500.02,0.01,0.77,0.60,-4.63,1.91,1.25,52.35,-0.37,571,1,0,0
98147,95482.46,500.05,500.02,0.01,0.77,0.60,-4.75,1.91,1.47,52.16,-0.76,571,1,0,0
98184,95484.51,500.08,500.02,0.01,0.77,0.59,-4.46,1.97,1.24,52.66,-0.56,571,1,0,0
98220,95482.08,500.29,500.02,0.01,0.77,0.60,-5.17,1.72,1.24,52.03,-0.37,571,1,0,0
98255,95483.19,500.19,500.02,0.01,0.77,0.59,-4.66,1.96,1.42,52.36,-0.53,571,1,0,0
98295,95488.80,499.77,500.02,0.01,0.77,0.60,-4.92,1.93,1.40,52.24,-0.69,571,1,0,0
98340,95483.53,500.16,500.02,0.01,0.78,0.61,-4.22,1.85,1.08,51.97,-0.51,571,1,0,0
98376,95486.35,499.92,500.02,0.01,0.77,0.60,-4.93,2.09,1.39,52.18,-0.85,571,1,0,0
98412,95477.22,500.71,500.02,0.01,0.77,0.60,-4.37,1.86,1.46,52.18,-0.37,571,1,0,0
98448,95486.72,499.49,500.02,0.01,0.77,0.59,-4.91,1.80,1.36,52.46,-0.77,571,1,0,0
98484,95486.35,499.92,500.02,0.01,0.77,0.60,-4.43,1.88,1.08,52.24,-0.52,571,1,0,0
98521,95476.63,500.28,500.02,0.02,0.77,0.60,-5.13,1.80,1.24,52.06,-1.01,571,1,0,0
98553,95483.19,500.41,500.02,0.01,0.77,0.60,-4.36,2.13,1.43,52.04,-0.67,571,1,0,0
98590,95487.47,499.82,500.02,0.01,0.78,0.59,-4.94,1.98,1.26,52.87,-0.76,571,1,0,0
98626,95487.85,499.79,500.02,0.01,0.77,0.60,-4.46,1.63,1.29,52.00,-0.30,571,1,0,0
98672,95486.72,499.89,500.02,0.01,0.77,0.60,-4.88,1.94,1.28,52.26,-0.32,571,1,0,0
98708,95484.67,499.72,500.02,0.01,0.77,0.60,-4.68,1.94,1.17,51.76,-0.47,571,1,0,0
98744,95485.39,500.00,500.02,0.01,0.77,0.60,-5.04,1.95,1.40,51.92,-0.57,571,1,0,0
98784,95482.58,500.25,500.02,0.01,0.77,0.60,-4.67,1.82,1.36,52.05,-0.53,571,1,0,0
98820,95484.80,500.05,500.02,0.01,0.77,0.59,-4.68,1.72,1.33,52.37,-0.66,571,1,0,0
98855,95492.86,499.35,500.02,0.01,0.77,0.60,-4.90,1.99,1.35,51.98,-0.49,571,1,0,0
98892,95486.88,499.87,500.01,0.00,0.76,0.60,-4.65,1.91,1.37,51.74,-0.16,571,1,0,0
98928,95486.88,499.84,500.01,0.01,0.77,0.59,-4.65,1.82,1.29,52.41,-0.55,571,1,0,0
98964,95484.07,500.12,500.01,0.01,0.77,0.60,-4.84,1.85,1.56,52.13,-0.69,571,1,0,0
99004,95487.25,499.84,500.01,0.01,0.77,0.59,-4.49,1.91,1.41,52.74,-0.38,571,1,0,0
99040,95490.07,500.08,500.01,0.01,0.77,0.60,-4.68,1.75,1.41,51.96,-0.59,571,1,0,0
99076,95478.46,500.61,500.02,0.01,0.77,0.60,-4.51,1.85,1.42,52.00,-0.65,571,1,0,0
99111,95487.60,499.81,500.02,0.01,0.77,0.60,-4.89,1.74,1.31,52.17,-0.67,571,1,0,0
99147,95485.17,500.05,500.02,0.01,0.76,0.60,-4.78,2.03,1.24,51.73,-0.43,571,1,0,0
99183,95494.32,499.22,500.01,0.01,0.77,0.60,-4.65,1.91,1.34,52.00,-0.42,571,1,0,0
99223,95483.09,500.20,500.01,0.01,0.78,0.59,-4.63,1.79,1.29,52.61,-0.73,571,1,0,0
99259,95482.74,499.99,500.01,0.01,0.77,0.60,-4.86,1.82,1.48,52.16,-0.33,571,1,0,0
99295,95485.55,499.99,500.01,0.01,0.77,0.60,-4.73,1.82,1.42,51.94,-0.45,571,1,0,0
99332,95480.28,500.45,500.01,0.01,0.77,0.61,-4.97,1.96,1.31,51.77,-0.36,571,1,0,0
99367,95485.17,500.02,500.01,0.01,0.77,0.60,-4.94,1.91,1.56,52.33,-0.82,571,1,0,0
99403,95483.46,500.17,500.02,0.01,0.77,0.60,-5.15,1.94,1.32,52.04,-0.73,571,1,0,0
99443,95489.46,499.65,500.01,0.01,0.77,0.59,-4.59,2.17,1.16,52.47,-0.66,571,1,0,0
99479,95483.09,499.96,500.01,0.01,0.77,0.61,-4.38,1.83,0.92,51.53,-0.60,571,1,0,0
99515,95491.89,499.43,500.01,0.01,0.77,0.60,-5.10,1.97,1.27,52.24,-0.68,571,1,0,0
99551,95481.03,499.89,500.01,0.01,0.77,0.60,-4.49,2.03,1.69,52.17,-0.33,571,1,0,0
99587,95486.27,499.92,500.01,0.01,0.77,0.60,-4.86,1.95,1.31,52.10,-0.54,571,1,0,0
99622,95484.60,500.07,500.01,0.01,0.77,0.60,-4.51,1.95,1.30,51.98,-0.53,571,1,0,0
99662,95477.85,500.66,500.01,0.01,0.77,0.60,-5.00,1.87,1.24,52.30,-0.47,571,1,0,0
99698,95487.75,500.04,500.01,0.01,0.78,0.60,-4.69,1.86,1.31,52.35,-0.74,571,1,0,0
99734,95487.75,499.80,500.01,0.01,0.77,0.59,-4.79,1.83,1.33,52.49,-0.63,571,1,0,0
99770,95475.42,499.65,500.01,0.01,0.77,0.59,-4.78,1.75,1.24,52.35,-0.81,571,1,0,0
99807,95486.64,499.89,500.01,0.01,0.78,0.61,-4.57,1.95,1.17,52.05,-0.40,571,1,0,0
99843,95484.22,500.10,500.01,0.01,0.77,0.60,-5.11,2.01,1.56,52.18,-0.39,571,1,0,0
99878,95486.64,499.92,500.01,0.01,0.77,0.60,-4.15,1.95,1.31,51.82,-0.65,571,1,0,0
99918,95486.64,499.89,500.01,0.01,0.77,0.61,-5.04,2.03,1.40,51.99,-0.80,571,1,0,0
99954,95487.03,499.86,500.01,0.01,0.77,0.60,-4.26,1.81,1.26,52.17,-0.43,571,1,0,0
99990,95480.66,499.92,500.01,0.01,0.77,0.59,-5.10,1.91,1.40,52.40,-0.73,571,1,0,0
100026,95484.22,500.10,500.01,0.01,0.77,0.60,-4.40,1.94,1.44,51.97,-0.39,571,1,0,0
100062,95479.33,500.53,500.01,0.01,0.77,0.59,-4.94,1.97,1.17,52.58,-0.39,571,1,0,0
100098,95483.85,500.14,500.01,0.01,0.77,0.60,-4.76,1.70,1.43,51.88,-0.54,571,1,0,0
100137,95483.46,500.17,500.01,0.01,0.77,0.59,-4.68,1.83,1.30,52.31,-0.55,571,1,0,0
100173,95487.41,499.83,500.01,0.00,0.77,0.60,-4.42,1.91,1.27,52.11,-0.27,571,1,0,0
100209,95481.79,500.07,500.01,0.01,0.77,0.60,-4.88,1.65,1.14,52.13,-0.56,571,1,0,0
100246,95483.09,500.20,500.01,0.02,0.77,0.59,-4.65,1.81,1.37,52.61,-0.91,571,1,0,0
100282,95477.47,500.45,500.01,0.01,0.77,0.60,-4.65,1.91,1.40,52.10,-0.72,571,1,0,0
100318,95482.14,500.29,500.02,0.01,0.77,0.60,-4.49,1.82,1.52,52.15,-0.50,571,1,0,0
100366,95487.41,499.83,500.02,0.01,0.77,0.61,-4.77,1.91,1.44,51.61,-0.30,571,1,0,0
100403,95484.95,500.04,500.02,0.01,0.77,0.59,-4.69,1.88,1.23,52.45,-0.65,571,1,0,0
100439,95487.41,499.80,500.01,0.02,0.77,0.60,-4.82,1.90,1.26,52.33,-0.92,571,1,0,0
100474,95484.60,500.07,500.01,0.01,0.77,0.60,-4.55,1.96,1.48,52.19,-0.61,571,1,0,0
100510,95484.60,500.32,500.02,0.00,0.77,0.60,-4.86,2.06,1.39,52.06,-0.29,571,1,0,0
100546,95478.60,500.59,500.02,0.01,0.77,0.60,-4.85,1.77,1.14,51.92,-0.42,571,1,0,0
100586,95481.79,500.32,500.02,0.00,0.77,0.59,-4.76,1.95,1.51,52.49,-0.25,571,1,0,0
100622,95485.32,500.01,500.02,0.01,0.77,0.60,-4.52,1.91,1.37,51.84,-0.61,571,1,0,0
100658,95484.60,500.07,500.02,0.01,0.77,0.59,-4.71,1.91,1.43,52.34,-0.30,571,1,0,0
100704,95482.52,499.76,500.02,0.01,0.77,0.60,-4.70,1.89,1.29,52.05,-0.47,571,1,0,0
100740,95482.52,500.25,500.02,0.01,0.77,0.60,-4.99,1.75,1.53,52.30,-0.44,571,1,0,0
100775,95488.13,499.76,500.02,0.01,0.77,0.59,-4.39,1.92,1.40,52.42,-0.78,571,1,0,0
100815,95482.52,500.25,500.02,0.01,0.77,0.60,-4.87,1.72,1.46,52.14,-0.59,571,1,0,0
100851,95482.86,499.73,500.02,0.01,0.77,0.59,-4.30,1.94,1.34,52.31,-0.69,571,1,0,0
100888,95476.90,500.74,500.02,0.01,0.77,0.60,-4.88,1.86,1.21,51.96,-0.65,571,1,0,0
100924,95483.24,499.66,500.02,0.01,0.77,0.60,-4.49,1.96,1.37,52.17,-0.44,571,1,0,0
100960,95485.32,500.01,500.02,0.01,0.77,0.60,-4.92,1.69,1.44,52.17,-0.70,571,1,0,0
100996,95488.48,499.73,500.02,0.01,0.77,0.60,-4.47,1.83,1.46,52.23,-0.46,571,1,0,0
101036,95480.43,500.43,500.02,0.00,0.77,0.59,-4.94,1.91,1.34,52.56,-0.22,571,1,0,0
101071,95483.61,500.19,500.02,0.01,0.77,0.60,-4.72,1.94,1.44,51.99,-0.82,571,1,0,0
101107,95483.97,500.13,500.02,0.01,0.76,0.60,-4.69,1.71,1.23,51.78,-0.52,571,1,0,0
101143,95483.61,500.47,500.02,0.01,0.77,0.60,-4.51,1.75,1.47,52.33,-0.56,571,1,0,0
101179,95480.06,500.47,500.02,0.01,0.77,0.60,-5.00,1.74,1.31,52.35,-0.67,571,1,0,0
101215,95483.61,500.16,500.02,0.01,0.77,0.59,-4.68,1.85,1.38,52.44,-0.59,571,1,0,0
101255,95480.82,500.40,500.02,0.01,0.77,0.60,-4.90,1.85,1.32,52.16,-0.50,571,1,0,0
101291,95484.35,500.09,500.02,0.01,0.77,0.60,-4.64,2.03,1.44,52.21,-0.73,571,1,0,0
101326,95484.35,500.09,500.02,0.01,0.78,0.60,-4.75,2.17,1.30,52.37,-0.53,571,1,0,0
101362,95479.10,500.27,500.03,0.01,0.77,0.60,-4.57,1.92,1.17,52.09,-0.47,571,1,0,0
101398,95485.10,500.03,500.03,0.01,0.77,0.61,-4.90,2.17,1.41,51.83,-0.61,571,1,0,0
101434,95485.10,500.27,500.03,0.01,0.77,0.60,-4.71,1.78,1.30,52.11,-0.39,571,1,0,0
101474,95489.96,499.60,500.03,0.01,0.77,0.60,-4.87,1.97,1.35,52.31,-0.60,571,1,0,0
101510,95491.82,499.57,500.02,0.02,0.77,0.60,-4.75,1.88,1.40,52.10,-0.96,571,1,0,0
101545,95483.39,500.18,500.02,0.01,0.77,0.60,-4.73,1.89,1.21,52.11,-0.76,571,1,0,0
101581,95473.87,499.47,500.02,0.01,0.77,0.60,-4.71,1.79,1.46,52.00,-0.40,571,1,0,0
101617,95487.31,499.83,500.02,0.01,0.77,0.60,-4.67,1.78,1.15,52.11,-0.82,571,1,0,0
101653,95485.83,499.96,500.02,0.01,0.77,0.60,-4.68,1.75,1.30,52.17,-0.76,571,1,0,0
101692,95489.39,499.65,500.02,0.01,0.77,0.59,-4.57,1.95,1.40,52.31,-0.50,571,1,0,0
101728,95475.35,499.90,500.02,0.01,0.77,0.61,-4.68,2.11,1.24,51.59,-0.37,571,1,0,0
101764,95486.21,499.93,500.02,0.01,0.77,0.59,-4.44,1.93,1.31,52.52,-0.72,571,1,0,0
101799,95483.02,500.21,500.02,0.01,0.77,0.60,-4.58,1.91,1.30,52.14,-0.86,571,1,0,0
101835,95489.01,499.69,500.02,0.01,0.77,0.59,-4.53,1.80,1.24,52.37,-0.55,571,1,0,0
101871,95484.50,500.08,500.02,0.00,0.77,0.59,-4.73,1.84,1.53,52.56,-0.24,571,1,0,0
101910,95481.69,500.33,500.02,0.01,0.77,0.61,-4.68,1.81,1.20,51.88,-0.54,571,1,0,0
101946,95476.42,499.83,500.02,0.01,0.77,0.61,-4.59,2.01,1.34,51.95,-0.46,571,1,0,0
101983,95477.17,500.72,500.02,0.01,0.77,0.60,-4.80,1.88,1.40,52.02,-0.49,571,1,0,0
102019,95476.42,499.80,500.02,0.01,0.77,0.60,-4.81,1.88,1.22,52.28,-0.44,571,1,0,0
102054,95490.84,499.52,500.02,0.01,0.77,0.60,-4.77,1.91,1.05,51.81,-0.39,571,1,0,0
102091,95476.80,500.75,500.02,0.01,0.77,0.60,-4.94,1.89,1.45,52.12,-0.62,571,1,0,0
102127,95476.80,500.75,500.02,0.01,0.77,0.59,-4.43,2.02,1.43,52.39,-0.48,571,1,0,0
102167,95483.89,500.16,500.02,0.02,0.77,0.60,-4.86,1.84,1.35,51.91,-1.03,571,1,0,0
102203,95476.80,500.75,500.03,0.01,0.77,0.60,-4.53,1.82,1.33,52.22,-0.55,571,1,0,0
102240,95482.80,501.18,500.03,0.00,0.77,0.61,-4.90,1.91,1.56,51.65,-0.20,571,1,0,0
102276,95482.80,500.23,500.03,0.00,0.77,0.59,-4.97,1.98,1.56,52.32,-0.26,571,1,0,0
102311,95484.28,500.10,500.03,0.01,0.77,0.60,-4.62,1.87,1.37,51.74,-0.40,571,1,0,0
102348,95479.03,500.56,500.03,0.02,0.77,0.60,-4.82,1.80,1.39,52.29,-1.09,571,1,0,0
102397,95485.38,500.00,500.03,0.01,0.77,0.60,-4.57,1.72,1.24,52.17,-0.71,571,1,0,0
102433,95478.66,499.97,500.03,0.01,0.78,0.59,-5.10,1.91,1.49,52.65,-0.74,571,1,0,0
102469,95487.46,499.82,500.03,0.01,0.77,0.59,-4.43,1.88,1.32,52.47,-0.37,571,1,0,0
102506,95480.11,499.97,500.03,0.01,0.77,0.60,-4.89,2.07,1.37,52.43,-0.41,571,1,0,0
102542,95480.49,500.43,500.03,0.01,0.77,0.60,-4.51,1.85,1.24,52.19,-0.68,571,1,0,0
102578,95479.77,500.49,500.03,0.01,0.77,0.60,-4.82,1.75,1.34,52.24,-0.59,571,1,0,0
102618,95489.28,499.66,500.03,0.01,0.76,0.60,-4.75,1.92,1.31,51.68,-0.55,571,1,0,0
102654,95478.82,500.68,500.04,0.01,0.77,0.60,-4.82,1.95,1.17,52.24,-0.56,571,1,0,0
102690,95480.11,500.46,500.04,0.01,0.77,0.60,-4.75,2.01,1.36,52.12,-0.55,571,1,0,0
102737,95477.67,500.68,500.04,0.02,0.77,0.61,-4.61,1.81,1.38,51.75,-0.88,571,1,0,0
102773,95480.86,500.40,500.04,0.01,0.77,0.60,-4.75,1.95,1.20,52.02,-0.55,571,1,0,0
102809,95480.49,500.43,500.04,0.01,0.77,0.59,-4.66,2.08,1.31,52.48,-0.36,571,1,0,0
102849,95481.97,500.30,500.04,0.01,0.77,0.60,-4.54,1.85,1.24,52.14,-0.50,571,1,0,0
102886,95481.24,500.36,500.04,0.01,0.77,0.60,-4.66,2.04,1.25,52.19,-0.76,571,1,0,0
102922,95482.35,500.36,500.04,0.01,0.77,0.60,-4.47,1.88,1.19,52.18,-0.82,571,1,0,0
102958,95479.91,500.48,500.05,0.01,0.78,0.60,-4.76,1.85,1.34,52.21,-0.70,571,1,0,0
102994,95477.83,500.24,500.05,0.01,0.77,0.60,-4.65,1.69,1.27,52.18,-0.66,571,1,0,0
103030,95482.72,500.24,500.05,0.01,0.77,0.60,-4.59,1.93,1.45,52.35,-0.85,571,1,0,0
103070,95479.53,500.51,500.05,0.01,0.77,0.60,-4.59,1.94,1.34,51.91,-0.50,571,1,0,0
103106,95482.72,500.24,500.05,0.01,0.77,0.60,-4.75,1.76,1.27,51.98,-0.30,571,1,0,0
103142,95488.34,499.74,500.05,0.01,0.77,0.60,-4.70,1.91,1.27,52.12,-0.79,571,1,0,0
103179,95491.52,499.47,500.05,0.01,0.77,0.60,-4.69,1.87,1.49,52.03,-0.36,571,1,0,0
103215,95482.72,500.20,500.05,0.02,0.77,0.60,-4.59,2.13,1.21,51.97,-1.02,571,1,0,0
103250,95483.45,500.17,500.05,0.01,0.77,0.60,-4.65,1.90,1.46,52.23,-0.65,571,1,0,0
103290,95482.72,500.24,500.05,0.01,0.77,0.59,-4.71,1.81,1.53,52.38,-0.56,571,1,0,0
103326,95482.35,499.78,500.05,0.01,0.78,0.60,-4.80,1.97,1.35,52.52,-0.57,571,1,0,0
103363,95484.17,500.11,500.05,0.01,0.77,0.61,-4.68,1.91,1.14,51.69,-0.73,571,1,0,0
103399,95480.64,500.17,500.05,0.01,0.77,0.59,-4.68,1.88,1.41,52.34,-0.59,571,1,0,0
103435,95483.45,500.17,500.05,0.02,0.76,0.60,-4.68,1.85,1.31,51.87,-0.98,571,1,0,0
103472,95488.71,499.71,500.05,0.00,0.77,0.60,-4.68,1.96,1.32,51.92,-0.16,571,1,0,0
103512,95482.72,500.24,500.05,0.00,0.77,0.60,-4.65,1.73,1.21,52.18,-0.29,571,1,0,0
103547,95489.07,499.71,500.05,0.01,0.77,0.60,-4.80,1.82,1.24,52.07,-0.63,571,1,0,0
103583,95480.64,500.42,500.05,0.01,0.77,0.61,-4.64,2.14,1.25,51.71,-0.50,571,1,0,0
103619,95488.71,500.20,500.05,0.02,0.77,0.60,-4.78,1.95,1.17,52.22,-1.01,571,1,0,0
103656,95482.50,500.25,500.05,0.01,0.77,0.61,-4.69,1.93,1.24,51.87,-0.66,571,1,0,0
103692,95489.07,500.14,500.05,0.01,0.77,0.59,-4.70,1.85,1.30,52.52,-0.39,571,1,0,0
103732,95480.64,500.66,500.05,0.01,0.77,0.60,-4.80,1.80,1.29,51.97,-0.85,571,1,0,0
103768,95485.31,500.01,500.05,0.01,0.77,0.59,-4.61,1.79,1.31,52.56,-0.68,571,1,0,0
103803,95484.17,500.11,500.05,0.01,0.77,0.60,-4.85,1.91,1.40,52.19,-0.45,571,1,0,0
103840,95482.12,500.29,500.05,0.01,0.77,0.60,-4.41,1.97,1.53,52.37,-0.77,571,1,0,0
103876,95481.36,500.35,500.05,0.01,0.77,0.60,-4.79,1.91,1.39,52.12,-0.60,571,1,0,0
103912,95489.41,499.62,500.05,0.01,0.77,0.60,-4.68,2.00,1.20,51.87,-0.63,571,1,0,0
103952,95478.56,500.35,500.05,0.01,0.76,0.60,-4.88,1.91,1.59,51.71,-0.83,571,1,0,0
103988,95483.22,500.19,500.05,0.01,0.77,0.59,-4.65,1.95,1.34,52.50,-0.79,571,1,0,0
104025,95489.78,500.29,500.05,0.01,0.77,0.59,-4.73,1.87,1.44,52.65,-0.73,571,1,0,0
104060,95482.85,500.22,500.05,0.01,0.78,0.60,-4.84,1.91,1.38,52.37,-0.41,571,1,0,0
104096,95489.41,499.65,500.05,0.01,0.77,0.60,-4.73,1.92,1.57,52.28,-0.54,571,1,0,0
104132,95476.88,500.75,500.05,0.01,0.77,0.60,-4.72,1.85,1.27,52.09,-0.71,571,1,0,0
104172,95484.92,500.04,500.05,0.01,0.77,0.60,-4.74,1.86,1.33,52.35,-0.65,571,1,0,0
104209,95476.50,500.78,500.06,0.01,0.77,0.60,-4.65,2.00,1.25,52.13,-0.36,571,1,0,0
104245,95489.78,500.50,500.06,0.01,0.77,0.60,-4.78,2.03,1.23,52.06,-0.53,571,1,0,0
104281,95482.85,500.22,500.06,0.01,0.77,0.60,-4.45,1.68,1.34,52.07,-0.56,571,1,0,0
104316,95479.32,500.47,500.06,0.01,0.77,0.60,-4.76,2.03,1.54,52.02,-0.44,571,1,0,0
104353,95480.03,500.47,500.06,0.01,0.77,0.59,-4.58,1.90,1.40,52.49,-0.48,571,1,0,0
104392,95485.31,500.01,500.06,0.00,0.77,0.60,-4.84,1.95,1.32,51.81,-0.20,571,1,0,0
104437,95479.69,500.50,500.06,0.01,0.77,0.60,-4.64,1.98,1.36,52.28,-0.65,571,1,0,0
104474,95482.50,500.25,500.06,0.01,0.77,0.60,-4.75,1.91,1.30,52.02,-0.46,571,1,0,0
104510,95480.79,500.40,500.06,0.01,0.77,0.59,-4.71,1.94,1.32,52.45,-0.39,571,1,0,0
104546,95474.42,500.96,500.07,0.01,0.77,0.60,-4.88,1.99,1.28,52.36,-0.59,571,1,0,0
104582,95480.42,500.44,500.07,0.01,0.77,0.60,-4.70,1.55,1.31,52.07,-0.82,571,1,0,0
104619,95486.78,499.98,500.07,0.01,0.77,0.60,-4.81,1.96,1.30,52.16,-0.67,571,1,0,0
104658,95473.13,499.85,500.07,0.01,0.77,0.60,-4.81,1.72,1.30,52.20,-0.46,571,1,0,0
104694,95481.55,500.34,500.07,0.01,0.77,0.60,-4.74,1.95,1.25,52.30,-0.79,571,1,0,0
104741,95483.97,500.13,500.07,0.01,0.77,0.60,-4.78,1.79,1.40,52.12,-0.62,571,1,0,0
104777,95493.13,499.33,500.07,0.01,0.76,0.60,-4.76,1.76,1.52,51.68,-0.56,571,1,0,0
104813,95479.44,500.52,500.07,0.00,0.77,0.59,-4.92,1.83,1.08,52.35,-0.14,571,1,0,0
104850,95484.71,500.06,500.07,0.01,0.77,0.60,-4.67,1.97,1.36,51.96,-0.54,571,1,0,0
104890,95485.42,500.00,500.07,0.01,0.77,0.60,-4.74,1.87,1.37,52.18,-0.32,571,1,0,0
104926,95477.00,500.24,500.07,0.01,0.77,0.60,-4.75,1.80,1.17,52.10,-0.80,571,1,0,0
104962,95485.42,500.00,500.07,0.01,0.77,0.59,-4.73,1.83,1.18,52.25,-0.82,571,1,0,0
104997,95482.24,501.01,500.07,0.01,0.77,0.60,-4.75,1.85,1.34,52.32,-0.51,571,1,0,0
105033,95480.57,500.42,500.07,0.01,0.77,0.59,-4.88,1.82,1.19,52.25,-0.49,571,1,0,0
105070,95479.82,500.49,500.07,0.01,0.77,0.59,-4.70,2.00,1.14,52.39,-0.42,571,1,0,0
105110,95481.67,500.33,500.07,0.01,0.77,0.60,-4.67,2.05,1.40,51.79,-0.70,571,1,0,0
105146,95477.76,500.70,500.08,0.01,0.77,0.59,-4.88,1.82,1.30,52.56,-0.60,571,1,0,0
105182,95477.38,500.70,500.08,0.01,0.77,0.61,-4.62,1.80,1.14,51.73,-0.41,571,1,0,0
105218,95483.00,500.67,500.08,0.01,0.77,0.60,-4.69,2.01,1.19,52.19,-0.39,571,1,0,0
105253,95483.00,500.21,500.08,0.01,0.77,0.60,-4.73,1.91,1.14,51.85,-0.79,571,1,0,0
105290,95480.92,500.39,500.08,0.01,0.77,0.59,-4.75,2.08,1.52,52.44,-0.75,571,1,0,0
105329,95480.92,500.39,500.08,0.01,0.77,0.60,-4.50,1.97,1.11,52.12,-0.35,571,1,0,0
105366,95484.85,500.05,500.08,0.01,0.77,0.60,-4.59,1.98,1.29,51.99,-0.45,571,1,0,0
105402,95473.25,501.06,500.09,0.01,0.77,0.60,-4.92,2.08,1.35,51.95,-0.85,571,1,0,0
105438,95484.10,500.11,500.09,0.01,0.77,0.60,-4.76,1.98,1.16,52.00,-0.69,571,1,0,0
105474,95474.95,500.91,500.09,0.01,0.77,0.60,-4.81,1.75,1.34,52.22,-0.54,571,1,0,0
105509,95473.25,501.00,500.09,0.01,0.77,0.60,-4.65,1.71,1.39,52.13,-0.41,571,1,0,0
105549,95478.11,500.64,500.09,0.01,0.77,0.60,-4.52,1.67,1.22,51.99,-0.36,571,1,0,0
105586,95478.11,500.64,500.09,0.00,0.77,0.60,-4.68,2.10,1.27,51.95,-0.19,571,1,0,0
105622,95474.95,500.91,500.10,0.01,0.77,0.60,-4.84,1.78,1.33,51.88,-0.56,571,1,0,0
105658,95471.77,501.19,500.10,0.01,0.78,0.59,-4.59,1.87,1.37,52.64,-0.37,571,1,0,0
105694,95480.57,500.42,500.10,0.01,0.77,0.60,-4.80,1.90,1.32,51.86,-0.59,571,1,0,0
105730,95474.57,500.39,500.10,0.01,0.77,0.60,-4.87,1.89,1.19,52.07,-0.63,571,1,0,0
105769,95483.38,500.70,500.10,0.01,0.77,0.60,-4.87,1.95,1.30,52.07,-0.65,571,1,0,0
105806,95486.19,499.93,500.10,0.01,0.77,0.59,-4.62,1.91,1.35,52.36,-0.68,571,1,0,0
105842,95477.38,500.45,500.10,0.01,0.77,0.60,-4.70,1.82,1.16,52.08,-0.42,571,1,0,0
105878,95480.57,500.42,500.11,0.01,0.77,0.59,-4.84,1.93,1.32,52.45,-0.55,571,1,0,0
105914,95484.48,500.08,500.11,0.01,0.77,0.60,-4.68,1.91,1.24,51.88,-0.39,571,1,0,0
105950,95478.86,500.57,500.11,0.01,0.77,0.60,-4.82,1.96,1.21,51.75,-0.77,571,1,0,0
105990,95475.67,500.88,500.11,0.02,0.77,0.60,-4.92,1.70,1.42,52.25,-0.90,571,1,0,0
106025,95481.67,500.33,500.11,0.01,0.77,0.59,-4.78,1.78,1.27,52.18,-0.56,571,1,0,0
106062,95480.57,500.57,500.11,0.00,0.76,0.60,-4.80,2.02,1.41,52.09,-0.19,571,1,0,0
106098,95485.24,500.02,500.11,0.01,0.77,0.60,-4.68,1.94,1.34,52.02,-0.59,571,1,0,0
106134,95478.86,500.08,500.11,0.02,0.77,0.60,-4.75,2.19,1.34,52.15,-0.93,571,1,0,0
106170,95482.05,500.29,500.11,0.01,0.77,0.60,-4.39,1.75,1.35,52.25,-0.47,571,1,0,0
106210,95481.29,500.36,500.11,0.01,0.77,0.60,-4.46,2.01,1.26,52.33,-0.49,571,1,0,0
106246,95476.05,500.82,500.12,0.01,0.77,0.60,-4.88,1.92,1.30,52.11,-0.83,571,1,0,0
106281,95479.96,501.00,500.12,0.00,0.77,0.59,-4.79,1.85,1.63,52.63,-0.29,571,1,0,0
106318,95481.67,500.33,500.12,0.01,0.77,0.60,-4.66,1.77,1.30,52.12,-0.50,571,1,0,0
106354,95479.96,500.29,500.12,0.01,0.77,0.60,-4.91,2.10,1.20,52.13,-0.56,571,1,0,0
106390,95476.43,500.78,500.12,0.01,0.77,0.60,-4.53,2.03,1.20,51.99,-0.77,571,1,0,0
106430,95484.48,500.08,500.12,0.01,0.77,0.60,-4.72,1.99,1.24,52.19,-0.59,571,1,0,0
106475,95485.58,500.48,500.12,0.01,0.77,0.60,-4.70,1.83,1.25,52.17,-0.51,571,1,0,0
106511,95478.49,500.61,500.12,0.01,0.77,0.60,-4.75,1.91,1.40,51.98,-0.79,571,1,0,0
106547,95479.62,500.50,500.13,0.01,0.77,0.59,-5.17,1.98,1.49,52.33,-0.62,571,1,0,0
106583,95476.81,500.85,500.13,0.01,0.77,0.60,-4.52,2.01,1.30,52.16,-0.66,571,1,0,0
106619,95484.85,500.05,500.13,0.01,0.77,0.60,-4.75,1.91,1.18,52.08,-0.80,571,1,0,0
106658,95476.81,500.75,500.13,0.01,0.77,0.60,-4.42,1.87,1.27,51.95,-0.33,571,1,0,0
106695,95479.96,500.50,500.13,0.01,0.77,0.60,-4.56,2.10,1.56,52.22,-0.39,571,1,0,0
106731,95479.24,500.54,500.13,0.01,0.77,0.60,-4.66,1.98,1.21,52.24,-0.60,571,1,0,0
106778,95479.24,500.61,500.13,0.01,0.77,0.60,-5.26,2.04,1.12,52.10,-0.79,571,1,0,0
106814,95477.50,500.69,500.14,0.01,0.77,0.60,-4.49,1.85,1.46,52.03,-0.75,571,1,0,0
106850,95479.96,500.69,500.14,0.02,0.77,0.59,-4.74,1.79,1.22,52.44,-1.04,571,1,0,0
106886,95486.69,499.89,500.14,0.01,0.77,0.60,-4.52,1.74,1.14,52.25,-0.44,571,1,0,0
106926,95485.93,499.96,500.14,0.01,0.78,0.60,-4.71,1.98,1.34,52.37,-0.56,571,1,0,0
106961,95481.44,500.35,500.14,0.01,0.77,0.60,-4.72,1.83,1.37,52.19,-0.56,571,1,0,0
106997,95482.78,500.23,500.14,0.00,0.77,0.60,-4.77,1.73,1.36,52.08,-0.23,571,1,0,0
107034,95480.32,500.44,500.14,0.01,0.76,0.59,-4.65,1.84,1.35,52.02,-0.36,571,1,0,0
107070,95483.12,500.23,500.14,0.01,0.77,0.59,-4.68,2.04,1.22,52.62,-0.53,571,1,0,0
107106,95484.25,500.10,500.14,0.01,0.77,0.60,-4.61,1.80,1.56,52.15,-0.66,571,1,0,0
107146,95486.69,499.89,500.14,0.01,0.77,0.60,-4.64,2.08,1.35,52.03,-0.49,571,1,0,0
107182,95484.25,500.35,500.14,0.01,0.77,0.59,-4.78,1.90,1.11,52.38,-0.83,571,1,0,0
107217,95481.44,500.35,500.14,0.01,0.77,0.60,-4.86,1.81,1.17,52.40,-0.80,571,1,0,0
107253,95484.25,500.10,500.14,0.01,0.77,0.60,-4.73,1.86,1.49,52.05,-0.67,571,1,0,0
107289,95481.80,500.31,500.14,0.01,0.77,0.60,-4.78,1.89,1.22,52.23,-0.33,571,1,0,0
107325,95479.36,500.53,500.14,0.00,0.77,0.59,-4.80,2.01,1.24,52.38,-0.26,571,1,0,0
107365,95478.64,500.59,500.14,0.00,0.77,0.60,-4.84,1.79,1.30,52.22,-0.24,571,1,0,0
107401,95482.55,500.49,500.14,0.01,0.77,0.60,-4.67,1.69,1.23,52.08,-0.64,571,1,0,0
107438,95483.28,500.19,500.14,0.01,0.77,0.59,-4.89,1.98,1.27,52.46,-0.66,571,1,0,0
107473,95484.60,499.83,500.14,0.01,0.77,0.60,-4.70,1.99,1.26,52.19,-0.52,571,1,0,0
107509,95478.99,500.56,500.14,0.01,0.77,0.59,-4.64,2.17,1.50,52.62,-0.33,571,1,0,0
107545,95486.08,499.94,500.14,0.01,0.77,0.60,-4.52,1.86,1.31,51.91,-0.50,571,1,0,0
107585,95488.89,499.70,500.14,0.01,0.77,0.60,-4.79,2.06,1.24,52.26,-0.33,571,1,0,0
107621,95480.46,500.49,500.14,0.01,0.77,0.60,-4.59,1.89,1.29,52.24,-0.60,571,1,0,0
107657,95480.46,500.43,500.14,0.01,0.77,0.60,-4.81,2.06,1.34,52.22,-0.40,571,1,0,0
107693,95485.74,500.46,500.14,0.01,0.77,0.59,-4.71,1.79,1.43,52.63,-0.68,571,1,0,0
107728,95477.66,500.68,500.15,0.01,0.77,0.59,-4.82,1.91,1.40,52.49,-0.36,571,1,0,0
107764,95481.19,500.37,500.15,0.01,0.76,0.60,-4.71,1.87,1.14,51.65,-0.40,571,1,0,0
107804,95474.85,500.92,500.15,0.02,0.77,0.61,-4.73,2.14,1.37,51.46,-1.01,571,1,0,0
107840,95484.38,500.58,500.15,0.01,0.77,0.60,-4.62,1.82,1.30,52.26,-0.64,571,1,0,0
107877,95490.00,499.60,500.15,0.01,0.77,0.60,-4.97,2.00,1.24,51.84,-0.66,571,1,0,0
107913,95481.57,500.40,500.15,0.01,0.77,0.60,-4.70,1.79,1.18,52.23,-0.32,571,1,0,0
107949,95476.33,500.79,500.15,0.01,0.77,0.60,-4.84,1.98,1.40,51.99,-0.43,571,1,0,0
107984,95481.57,500.34,500.15,0.01,0.77,0.60,-4.59,1.80,1.40,51.90,-0.62,571,1,0,0
108024,95484.00,500.12,500.15,0.00,0.77,0.61,-4.97,1.83,1.41,51.66,-0.26,571,1,0,0
108060,95481.19,500.30,500.15,0.01,0.77,0.60,-4.78,1.91,1.31,52.44,-0.67,571,1,0,0
108096,95478.76,500.58,500.15,0.01,0.77,0.60,-4.60,1.91,1.32,52.19,-0.66,571,1,0,0
108132,95478.39,500.89,500.16,0.01,0.77,0.60,-4.81,2.03,1.56,52.08,-0.57,571,1,0,0
108168,95475.57,500.86,500.16,0.01,0.77,0.60,-4.59,1.82,1.33,52.09,-0.57,571,1,0,0
108204,95473.14,500.58,500.16,0.01,0.77,0.59,-4.65,1.86,1.40,52.32,-0.33,571,1,0,0
108243,95471.06,501.25,500.16,0.01,0.77,0.60,-4.67,1.79,1.42,52.35,-0.79,571,1,0,0
108279,95478.03,500.64,500.17,0.01,0.77,0.59,-4.90,1.89,1.44,52.23,-0.42,571,1,0,0
108315,95486.08,499.94,500.17,0.01,0.77,0.59,-4.52,1.89,1.17,52.31,-0.43,571,1,0,0
108351,95479.14,500.48,500.17,0.01,0.77,0.60,-4.70,2.14,1.24,52.14,-0.50,571,1,0,0
108388,95485.48,499.99,500.17,0.01,0.77,0.60,-4.75,1.73,1.35,52.28,-0.50,571,1,0,0
108424,95475.96,500.09,500.17,0.00,0.77,0.60,-4.78,1.88,1.21,52.14,-0.24,571,1,0,0
108463,95488.29,499.75,500.16,0.01,0.77,0.61,-4.51,1.91,1.35,51.76,-0.50,571,1,0,0
108508,95481.57,500.34,500.16,0.01,0.78,0.60,-4.71,2.08,1.27,52.25,-0.58,571,1,0,0
108544,95481.57,500.34,500.17,0.01,0.77,0.60,-4.72,2.26,1.27,52.21,-0.44,571,1,0,0
108580,95479.86,500.48,500.17,0.01,0.77,0.60,-4.71,1.95,1.32,51.80,-0.56,571,1,0,0
108616,95479.86,500.48,500.17,0.01,0.78,0.59,-4.88,1.88,1.38,52.58,-0.74,571,1,0,0
108652,95478.76,500.34,500.17,0.01,0.77,0.60,-4.68,1.81,1.38,52.24,-0.47,571,1,0,0
108691,95485.85,500.21,500.17,0.01,0.77,0.60,-4.55,1.96,1.46,51.79,-0.87,571,1,0,0
108727,95488.29,499.75,500.17,0.01,0.78,0.60,-4.85,1.81,1.30,52.18,-0.84,571,1,0,0
108774,95479.49,500.24,500.17,0.01,0.77,0.59,-4.40,1.93,1.40,52.57,-0.39,571,1,0,0
108810,95484.38,500.09,500.17,0.02,0.76,0.61,-4.99,1.81,1.33,51.61,-1.03,571,1,0,0
108846,95479.49,500.27,500.17,0.01,0.77,0.59,-4.39,1.79,1.05,52.39,-0.55,571,1,0,0
108881,95483.05,500.21,500.17,0.01,0.77,0.60,-4.81,1.91,1.30,51.88,-0.75,571,1,0,0
109004,95488.67,499.71,500.17,0.01,0.78,0.60,-4.31,1.82,1.10,52.35,-0.76,571,1,0,0
109039,95479.14,500.55,500.17,0.01,0.77,0.60,-4.62,1.80,1.26,52.02,-0.37,571,1,0,0
109075,95479.86,500.48,500.17,0.01,0.77,0.59,-4.64,1.95,1.37,52.36,-0.56,571,1,0,0
109111,95483.42,500.17,500.17,0.01,0.78,0.60,-4.71,1.74,1.50,52.34,-0.51,571,1,0,0
109147,95480.24,499.89,500.17,0.01,0.77,0.60,-4.67,1.80,1.37,52.17,-0.65,571,1,0,0
109182,95485.48,499.99,500.17,0.01,0.76,0.60,-4.75,1.70,1.35,51.83,-0.55,571,1,0,0
109222,95475.38,500.88,500.17,0.01,0.76,0.60,-4.68,2.10,1.15,51.90,-0.68,571,1,0,0
109258,95485.85,499.96,500.17,0.01,0.77,0.60,-4.53,1.97,1.36,52.14,-0.84,571,1,0,0
109295,95479.86,500.48,500.17,0.01,0.77,0.59,-4.78,1.72,1.20,52.15,-0.49,571,1,0,0
109331,95482.30,500.27,500.17,0.00,0.77,0.59,-4.62,2.12,1.40,52.26,-0.29,571,1,0,0
109367,95479.86,500.45,500.17,0.01,0.76,0.60,-4.68,1.93,1.40,51.77,-0.52,571,1,0,0
109404,95480.61,500.42,500.17,0.01,0.78,0.60,-4.94,1.95,1.21,52.17,-0.55,571,1,0,0
109440,95483.05,499.96,500.17,0.02,0.77,0.59,-4.62,1.79,1.42,52.33,-1.07,571,1,0,0
109479,95480.61,500.73,500.17,0.01,0.77,0.61,-4.80,1.89,1.43,51.61,-0.87,571,1,0,0
109515,95479.14,500.55,500.17,0.01,0.77,0.60,-4.59,1.91,1.31,52.17,-0.40,571,1,0,0
109552,95481.57,500.45,500.17,0.01,0.77,0.59,-4.89,1.84,1.24,52.34,-0.65,571,1,0,0
109588,95483.80,500.14,500.17,0.01,0.77,0.59,-4.87,1.91,1.21,52.65,-0.53,571,1,0,0
109625,95479.49,500.52,500.18,0.01,0.77,0.60,-4.58,1.80,1.43,51.94,-0.30,571,1,0,0
109661,95476.33,500.79,500.18,0.01,0.77,0.59,-4.88,1.98,1.36,52.56,-0.63,571,1,0,0
109701,95483.05,500.21,500.18,0.01,0.77,0.60,-4.67,1.74,0.98,52.25,-0.76,571,1,0,0
109736,95479.86,500.48,500.18,0.02,0.77,0.60,-4.99,2.02,1.21,52.08,-0.90,571,1,0,0
109773,95479.14,500.55,500.18,0.02,0.77,0.60,-4.88,1.93,1.43,51.78,-1.17,571,1,0,0
109809,95482.30,500.27,500.18,0.01,0.77,0.60,-4.85,1.88,1.26,52.15,-0.56,571,1,0,0
109845,95476.33,500.45,500.18,0.01,0.77,0.60,-4.78,1.70,1.21,52.10,-0.42,571,1,0,0
109882,95489.05,499.68,500.18,0.01,0.77,0.59,-4.97,1.78,1.23,52.63,-0.62,571,1,0,0
109922,95484.38,500.09,500.18,0.01,0.77,0.59,-4.66,2.10,1.30,52.31,-0.56,571,1,0,0
109958,95482.30,500.52,500.18,0.01,0.77,0.60,-5.01,1.73,1.43,52.34,-0.67,571,1,0,0
109993,95475.00,500.91,500.18,0.01,0.77,0.59,-4.42,1.81,1.40,52.39,-0.36,571,1,0,0
110030,95481.94,500.30,500.18,0.01,0.77,0.60,-4.91,1.82,1.50,52.05,-0.43,571,1,0,0
110066,95485.48,499.99,500.18,0.01,0.77,0.59,-4.78,1.79,1.39,52.72,-0.75,571,1,0,0
110102,95480.24,500.45,500.18,0.00,0.77,0.61,-4.72,1.88,1.22,51.51,-0.24,571,1,0,0
110142,95476.67,500.76,500.19,0.02,0.78,0.59,-4.84,1.76,1.29,52.58,-1.05,571,1,0,0
110179,95479.14,500.30,500.19,0.01,0.77,0.59,-4.37,1.82,1.40,52.39,-0.47,571,1,0,0
110215,95485.10,500.03,500.19,0.00,0.77,0.60,-4.97,1.80,1.21,52.25,-0.27,571,1,0,0
110251,95483.05,500.70,500.19,0.01,0.77,0.59,-4.68,2.08,1.27,52.33,-0.55,571,1,0,0
110286,95475.00,500.91,500.19,0.01,0.77,0.59,-4.65,1.86,1.23,52.38,-0.63,571,1,0,0
110323,95483.05,500.45,500.19,0.02,0.77,0.60,-4.71,1.98,1.21,52.21,-0.89,571,1,0,0
110363,95481.72,500.32,500.19,0.01,0.78,0.60,-4.71,1.78,1.54,52.26,-0.71,571,1,0,0
110399,95477.81,500.66,500.19,0.01,0.77,0.60,-4.85,1.74,1.39,51.98,-0.49,571,1,0,0
110435,95481.35,500.35,500.19,0.01,0.77,0.59,-4.73,1.74,1.38,52.63,-0.53,571,1,0,0
110472,95478.19,500.66,500.19,0.01,0.77,0.60,-4.71,2.07,1.10,52.35,-0.36,571,1,0,0
110508,95483.42,500.17,500.19,0.01,0.77,0.59,-4.44,1.86,1.21,52.26,-0.61,571,1,0,0
110543,95483.05,500.48,500.19,0.01,0.77,0.60,-4.66,1.96,1.27,52.33,-0.47,571,1,0,0
110593,95479.86,500.48,500.20,0.01,0.77,0.60,-4.67,1.81,1.16,52.08,-0.46,571,1,0,0
110628,95480.61,500.42,500.20,0.01,0.77,0.60,-4.64,1.95,1.30,52.28,-0.70,571,1,0,0
110665,95480.99,500.45,500.20,0.01,0.76,0.60,-4.82,1.80,1.55,51.67,-0.49,571,1,0,0
110701,95480.99,500.39,500.20,0.01,0.77,0.61,-4.55,1.82,1.08,51.84,-0.60,571,1,0,0
110737,95485.85,500.42,500.20,0.01,0.77,0.60,-5.04,1.76,1.46,51.84,-0.70,571,1,0,0
110774,95480.99,500.39,500.20,0.01,0.77,0.59,-4.57,2.05,1.34,52.43,-0.85,571,1,0,0
110814,95480.61,500.42,500.20,0.01,0.76,0.60,-4.81,1.85,1.34,51.67,-0.55,571,1,0,0
110850,95487.34,499.83,500.20,-0.00,0.77,0.59,-4.94,2.10,1.26,52.43,0.03,571,1,0,0
110897,95486.96,499.87,500.20,0.01,0.77,0.60,-4.42,1.92,1.30,52.16,-0.63,571,1,0,0
110934,95486.96,500.32,500.20,0.01,0.77,0.59,-5.23,1.95,1.50,52.48,-0.34,571,1,0,0
110969,95481.35,500.35,500.20,0.01,0.77,0.60,-4.59,1.87,1.37,51.96,-0.86,571,1,0,0
111005,95477.81,500.11,500.20,0.01,0.77,0.60,-4.75,1.63,1.38,52.20,-0.47,571,1,0,0
111045,95480.61,499.93,500.20,0.01,0.77,0.60,-4.76,2.11,1.08,51.99,-0.70,571,1,0,0
111082,95477.81,500.66,500.20,0.02,0.76,0.60,-4.65,1.95,1.21,51.76,-1.02,571,1,0,0
111118,95481.72,500.32,500.20,0.01,0.77,0.60,-4.51,1.71,1.57,52.20,-0.57,571,1,0,0
111154,95475.00,500.91,500.20,0.01,0.77,0.60,-4.87,1.91,1.26,51.86,-0.56,571,1,0,0
111190,95480.99,500.39,500.20,-0.05,0.83,0.60,-17.94,2.46,2.54,54.09,2.58,571,1,0,0
111226,95478.91,500.54,500.20,0.00,0.64,0.63,-1.47,2.34,1.58,45.12,-0.08,571,1,0,0
111266,95481.35,500.63,500.20,-0.00,0.84,0.53,8.56,2.04,0.92,57.85,0.06,571,1,0,0
111302,95481.35,500.35,500.21,-0.01,0.79,0.63,-36.03,1.53,2.91,51.47,0.32,571,1,0,0
111338,95478.91,500.63,500.21,0.02,0.71,0.62,-27.42,1.31,1.89,49.07,-1.35,571,1,0,0
111375,95481.72,500.32,500.21,0.01,0.69,0.68,13.06,2.24,0.91,45.79,-0.64,571,1,0,0
111411,95486.96,500.35,500.21,0.01,0.86,0.55,6.11,1.85,0.78,57.28,-0.59,571,1,0,0
111447,95482.47,500.26,500.21,0.01,0.74,0.62,-18.22,1.83,1.76,49.97,-0.72,571,1,0,0
111486,95486.61,499.89,500.21,-0.01,0.73,0.58,7.50,0.87,0.92,51.73,0.90,571,1,0,0
111522,95479.67,500.50,500.21,0.02,0.81,0.60,-18.54,1.79,2.14,53.71,-1.39,571,1,0,0
111559,95478.19,500.50,500.21,0.02,0.73,0.66,-20.64,1.61,1.37,48.10,-0.98,571,1,0,0
111595,95476.49,500.78,500.21,0.01,0.70,0.66,16.51,2.12,1.24,46.79,-0.45,571,1,0,0
111631,95480.61,500.35,500.21,0.01,0.83,0.53,0.84,1.99,1.15,57.46,-0.44,571,1,0,0
111668,95483.80,500.14,500.21,0.02,0.75,0.62,-20.43,1.79,1.76,50.25,-1.06,571,1,0,0
111708,95478.53,500.60,500.21,0.02,0.77,0.59,-15.38,1.43,1.82,52.38,-0.98,571,1,0,0
111744,95481.35,500.60,500.21,0.01,0.75,0.62,-33.39,1.36,1.56,50.12,-0.76,571,1,0,0
111779,95483.80,500.14,500.21,0.01,0.69,0.66,-14.24,1.79,1.54,46.16,-0.69,571,1,0,0
111815,95483.80,500.14,500.21,0.01,0.72,0.64,5.00,2.00,1.55,48.69,-0.83,571,1,0,0
111852,95476.10,500.81,500.21,0.01,0.72,0.63,8.03,1.95,1.08,48.85,-0.55,571,1,0,0
111888,95481.72,500.32,500.21,0.01,0.74,0.62,11.58,1.82,1.10,50.04,-0.69,571,1,0,0
111924,95484.53,500.11,500.21,0.01,0.77,0.62,9.85,2.17,0.85,51.37,-0.43,571,1,0,0
111964,95486.96,500.39,500.21,0.02,0.77,0.60,-10.44,2.04,1.50,51.93,-0.93,571,1,0,0
112000,95484.16,500.11,500.21,0.01,0.76,0.64,-15.33,1.58,1.36,50.19,-0.58,571,1,0,0
112036,95478.19,499.83,500.21,0.01,0.80,0.57,-43.27,1.10,2.32,54.56,-0.76,571,1,0,0
112072,95475.73,500.85,500.22,0.01,0.76,0.63,-87.75,2.33,2.72,50.02,-0.81,571,1,0,0
112108,95479.28,500.29,500.22,0.02,0.64,0.69,-83.98,1.90,1.68,42.91,-0.98,571,1,0,0
112145,95475.73,500.85,500.22,0.01,0.62,0.74,-60.79,1.59,1.37,39.96,-0.41,571,1,0,0
112185,95475.73,500.85,500.22,0.00,0.60,0.75,-48.09,2.59,2.19,38.51,-0.13,571,1,0,0
112221,95478.19,500.63,500.22,0.01,0.56,0.77,-17.94,1.37,0.55,36.24,-0.49,571,1,0,0
112257,95484.16,500.11,500.22,0.01,0.56,0.79,1.44,1.65,1.58,35.61,-0.74,571,1,0,0
112292,95473.30,501.06,500.22,0.01,0.59,0.76,17.43,1.60,1.52,37.70,-0.54,571,1,0,0
112329,95483.80,500.85,500.22,0.01,0.60,0.75,27.48,1.56,1.66,38.81,-0.87,571,1,0,0
112365,95477.43,500.70,500.23,0.02,0.61,0.74,44.27,1.69,1.31,39.41,-1.00,571,1,0,0
112405,95481.72,500.32,500.23,0.02,0.60,0.75,91.43,2.24,0.51,38.77,-1.25,571,1,0,0
112441,95481.72,500.32,500.23,0.03,0.73,0.77,135.28,5.34,-1.30,43.28,-1.66,571,1,0,0
112477,95482.10,500.29,500.23,-0.03,0.90,0.47,58.41,4.26,1.47,62.53,1.66,571,1,0,0
112514,95482.10,500.29,500.23,-0.00,0.85,0.47,-94.35,-0.09,2.43,61.07,0.10,571,1,0,0
112549,95481.72,500.32,500.23,0.01,0.57,0.68,-55.63,0.65,2.08,39.95,-0.76,571,1,0,0
112585,95486.96,499.87,500.23,0.01,0.63,0.72,47.36,2.59,0.84,41.14,-0.82,571,1,0,0
112634,95476.49,500.78,500.23,0.00,0.84,0.42,-7.04,2.30,1.60,63.43,-0.13,571,1,0,0
112670,95477.81,500.14,500.23,0.03,0.67,0.65,-42.92,1.20,1.91,46.02,-1.98,571,1,0,0
112706,95481.72,500.32,500.23,0.02,0.68,0.65,21.08,2.51,0.56,46.32,-1.10,571,1,0,0
112743,95479.28,500.57,500.23,0.03,0.83,0.48,2.66,2.60,0.57,59.84,-2.05,571,1,0,0
112779,95481.72,500.32,500.23,0.01,0.74,0.65,-23.37,1.68,1.72,48.91,-0.61,571,1,0,0
112815,95481.35,500.11,500.23,0.00,0.77,0.63,9.05,2.55,0.85,50.63,-0.06,571,1,0,0
112855,95476.49,500.78,500.23,0.01,0.81,0.57,-12.08,1.67,1.49,54.81,-0.55,571,1,0,0
112903,95482.47,500.26,500.23,0.01,0.75,0.63,1.07,2.17,1.14,49.82,-0.82,571,1,0,0
112939,95488.10,499.98,500.23,0.00,0.79,0.57,-4.67,1.99,1.17,54.04,-0.29,571,1,0,0
112974,95482.82,500.23,500.23,0.01,0.75,0.62,-7.45,1.84,1.49,50.51,-0.43,571,1,0,0
113010,95480.02,500.20,500.23,0.01,0.77,0.60,-0.85,2.03,1.18,52.21,-0.51,571,1,0,0
113046,95478.69,500.59,500.23,0.01,0.77,0.60,-8.00,1.59,1.32,51.88,-0.65,571,1,0,0
113086,95483.55,500.16,500.23,0.01,0.76,0.61,-2.13,1.92,1.17,51.33,-0.77,571,1,0,0
113123,95484.30,500.10,500.23,0.01,0.77,0.60,-6.06,1.93,1.46,52.00,-0.36,571,1,0,0
113159,95476.86,500.75,500.23,0.01,0.76,0.61,-4.18,1.89,1.42,51.28,-0.53,571,1,0,0
113195,95484.30,500.10,500.23,0.00,0.78,0.60,-4.32,2.17,1.38,52.27,-0.26,571,1,0,0
113230,95480.74,500.20,500.23,0.01,0.76,0.60,-5.30,1.89,1.29,51.76,-0.73,571,1,0,0
113266,95481.72,500.32,500.23,0.01,0.77,0.60,-4.17,1.83,1.34,52.15,-0.79,571,1,0,0
113306,95482.10,500.29,500.23,0.02,0.77,0.60,-5.08,2.04,1.21,51.96,-0.90,571,1,0,0
113342,95485.28,499.76,500.23,0.01,0.77,0.60,-3.97,1.79,1.29,51.94,-0.67,571,1,0,0
113379,95484.91,500.04,500.23,0.01,0.76,0.60,-5.05,2.04,1.48,51.94,-0.41,571,1,0,0
113415,95482.47,500.26,500.23,0.01,0.76,0.61,-4.30,1.88,1.43,51.24,-0.44,571,1,0,0
113451,95484.91,500.04,500.23,0.01,0.77,0.59,-5.00,2.07,1.21,52.16,-0.71,571,1,0,0
113486,95477.55,500.69,500.23,0.02,0.77,0.60,-4.59,2.04,1.58,51.81,-0.97,571,1,0,0
113526,95484.91,500.04,500.23,0.00,0.77,0.60,-4.94,1.95,1.21,51.84,-0.19,571,1,0,0
113562,95482.47,500.29,500.23,0.01,0.77,0.60,-4.43,1.75,1.34,51.83,-0.57,571,1,0,0
113598,95485.63,499.98,500.23,0.02,0.77,0.61,-4.76,2.08,1.48,51.80,-1.03,571,1,0,0
113635,95482.10,499.80,500.23,0.01,0.76,0.60,-4.65,1.88,1.26,51.65,-0.66,571,1,0,0
113671,95477.21,500.72,500.23,0.02,0.76,0.61,-4.47,2.04,1.21,51.49,-1.01,571,1,0,0
113707,95482.47,500.26,500.23,0.01,0.77,0.59,-5.00,2.02,1.40,52.37,-0.63,571,1,0,0
113746,95481.72,500.32,500.23,0.01,0.78,0.61,-4.77,1.98,1.27,52.01,-0.75,571,1,0,0
113782,95482.47,500.23,500.23,0.01,0.77,0.60,-4.43,1.91,1.27,51.78,-0.72,571,1,0,0
113818,95480.02,500.47,500.23,0.00,0.77,0.60,-4.79,1.86,1.19,52.04,-0.29,571,1,0,0
113854,95476.49,500.01,500.23,0.01,0.77,0.60,-4.74,1.86,1.48,52.30,-0.40,571,1,0,0
113891,95482.82,500.23,500.23,0.01,0.77,0.60,-4.53,1.84,1.18,52.31,-0.52,571,1,0,0
113927,95478.91,500.57,500.23,0.01,0.76,0.61,-4.81,1.95,1.37,51.46,-0.52,571,1,0,0
113967,95473.67,501.03,500.23,0.01,0.77,0.60,-4.49,2.04,1.26,52.02,-0.32,571,1,0,0
114002,95477.21,500.65,500.24,0.01,0.77,0.60,-4.69,2.04,1.17,51.91,-0.73,571,1,0,0
114038,95479.67,500.50,500.24,0.01,0.76,0.60,-4.64,1.55,1.34,51.73,-0.88,571,1,0,0
114074,95484.53,500.29,500.24,0.01,0.77,0.60,-4.83,1.80,1.33,51.85,-0.53,571,1,0,0
114110,95487.34,499.83,500.24,0.01,0.77,0.61,-4.96,2.05,1.17,51.60,-0.50,571,1,0,0
114147,95484.91,500.29,500.24,0.01,0.77,0.61,-4.52,2.01,1.14,51.65,-0.50,571,1,0,0
114186,95484.53,500.08,500.23,0.01,0.77,0.60,-5.04,1.95,1.22,52.10,-0.65,571,1,0,0
114223,95482.10,500.29,500.23,0.01,0.76,0.61,-4.59,1.98,1.40,51.60,-0.40,571,1,0,0
114258,95479.67,500.50,500.24,0.01,0.77,0.60,-4.21,1.85,1.32,52.06,-0.86,571,1,0,0
114294,95488.10,499.83,500.23,0.01,0.77,0.60,-5.20,1.95,1.39,52.15,-0.85,571,1,0,0
114330,95480.99,500.39,500.24,0.01,0.77,0.60,-4.59,1.94,1.43,51.93,-0.68,571,1,0,0
114366,95486.96,500.23,500.24,0.01,0.77,0.60,-4.57,1.69,1.34,52.12,-0.42,571,1,0,0
114406,95481.72,500.57,500.24,0.01,0.76,0.60,-4.74,1.89,1.50,51.82,-0.32,571,1,0,0
114442,95484.16,500.11,500.24,0.01,0.76,0.60,-4.69,1.99,1.31,51.77,-0.79,571,1,0,0
114478,95482.47,500.26,500.24,0.01,0.77,0.60,-4.88,1.90,1.52,52.32,-0.71,571,1,0,0
114514,95482.10,500.29,500.24,0.01,0.76,0.60,-4.40,2.03,1.38,51.77,-0.68,571,1,0,0
114550,95483.17,500.20,500.24,0.01,0.77,0.60,-4.91,1.96,1.32,51.88,-0.36,571,1,0,0
114586,95483.42,500.04,500.24,-0.00,0.77,0.60,-4.52,1.76,1.48,51.87,0.03,571,1,0,0
114622,95485.28,500.01,500.23,0.01,0.77,0.59,-4.75,1.91,1.33,52.29,-0.42,571,1,0,0
114671,95477.21,500.72,500.24,0.01,0.77,0.60,-4.81,2.03,1.40,51.97,-0.81,571,1,0,0
114707,95487.34,500.54,500.24,0.01,0.76,0.61,-4.63,1.82,1.13,51.57,-0.59,571,1,0,0
114743,95480.99,500.39,500.24,0.01,0.77,0.61,-4.39,1.81,1.22,51.73,-0.57,571,1,0,0
114779,95487.34,500.32,500.24,0.01,0.77,0.60,-4.80,1.95,1.38,52.04,-0.66,571,1,0,0
114814,95484.16,500.11,500.24,0.01,0.77,0.61,-4.68,1.89,1.30,51.68,-0.52,571,1,0,0
114850,95481.72,500.32,500.24,0.01,0.76,0.60,-4.79,1.76,1.35,51.84,-0.75,571,1,0,0
114903,95484.53,500.04,500.24,0.01,0.77,0.60,-4.49,1.81,1.40,51.95,-0.65,571,1,0,0
114938,95481.72,500.32,500.24,0.02,0.77,0.60,-4.75,1.85,1.30,52.18,-0.98,571,1,0,0
114974,95478.91,500.32,500.24,0.02,0.77,0.60,-4.91,1.78,1.14,51.91,-0.92,571,1,0,0
115010,95487.34,499.83,500.24,0.01,0.77,0.60,-4.35,2.04,1.46,51.77,-0.60,571,1,0,0
115046,95484.16,500.11,500.24,0.01,0.77,0.60,-4.91,1.79,1.56,52.02,-0.69,571,1,0,0
115082,95479.28,500.54,500.24,0.01,0.76,0.61,-4.52,1.82,1.67,51.51,-0.73,571,1,0,0
115122,95475.00,500.81,500.24,0.01,0.77,0.60,-4.96,1.75,1.46,51.81,-0.33,571,1,0,0
115158,95481.72,500.32,500.24,0.01,0.77,0.60,-4.65,2.09,1.09,51.95,-0.69,571,1,0,0
115193,95475.73,500.35,500.24,0.01,0.76,0.61,-4.88,1.95,1.41,51.57,-0.44,571,1,0,0
115230,95486.61,499.89,500.24,0.01,0.76,0.60,-4.52,1.78,1.18,51.79,-0.45,571,1,0,0
115266,95481.35,500.35,500.24,0.01,0.76,0.60,-4.90,2.09,1.24,51.92,-0.49,571,1,0,0
115302,95484.16,500.11,500.24,0.01,0.77,0.60,-4.53,1.91,1.17,52.16,-0.59,571,1,0,0
115342,95484.91,500.04,500.24,0.01,0.76,0.59,-4.75,1.75,1.17,52.24,-0.46,571,1,0,0
115378,95484.16,500.11,500.24,0.01,0.76,0.60,-4.89,1.87,1.30,51.79,-0.76,571,1,0,0
115414,95476.49,499.83,500.24,0.01,0.77,0.60,-5.02,1.96,1.36,51.99,-0.66,571,1,0,0
115449,95481.72,500.32,500.24,0.01,0.77,0.60,-4.55,1.87,1.29,51.93,-0.72,571,1,0,0
115485,95484.91,500.78,500.24,0.01,0.76,0.61,-4.78,1.76,1.17,51.44,-0.73,571,1,0,0
115521,95484.53,500.08,500.24,0.01,0.76,0.60,-4.64,1.75,1.27,51.64,-0.59,571,1,0,0
115561,95482.10,500.29,500.24,0.01,0.77,0.60,-5.07,2.03,1.24,52.17,-0.76,571,1,0,0
115597,95479.28,500.54,500.24,0.01,0.77,0.60,-4.68,2.06,1.42,52.06,-0.53,571,1,0,0
115633,95482.10,500.04,500.24,0.01,0.76,0.59,-4.49,1.77,1.53,52.17,-0.89,571,1,0,0
115668,95484.91,500.04,500.24,0.01,0.77,0.60,-4.65,1.67,1.44,51.70,-0.37,571,1,0,0
115704,95482.82,500.23,500.24,0.01,0.77,0.60,-4.62,2.00,1.38,51.87,-0.86,571,1,0,0
115741,95483.17,500.20,500.24,0.01,0.77,0.60,-4.73,1.71,1.47,52.18,-0.32,571,1,0,0
115780,95479.67,500.50,500.24,0.01,0.77,0.61,-4.70,1.93,1.34,51.70,-0.30,571,1,0,0
115817,95481.72,500.32,500.24,0.01,0.77,0.61,-4.72,1.96,1.34,51.35,-0.51,571,1,0,0
115853,95482.10,500.32,500.24,0.02,0.77,0.60,-4.83,1.91,1.13,52.17,-0.89,571,1,0,0
115889,95480.36,500.44,500.24,0.02,0.76,0.60,-4.89,1.91,1.29,51.83,-0.92,571,1,0,0
115924,95480.02,500.54,500.24,0.01,0.77,0.60,-4.72,1.91,1.09,52.01,-0.61,571,1,0,0
115960,95488.10,499.76,500.24,0.01,0.77,0.61,-4.78,1.96,1.36,51.80,-0.77,571,1,0,0
116000,95479.67,500.50,500.24,0.01,0.77,0.60,-4.74,1.90,1.28,52.29,-0.79,571,1,0,0
116035,95482.82,500.23,500.24,0.01,0.76,0.60,-4.69,1.72,1.37,51.96,-0.69,571,1,0,0
116071,95482.10,500.23,500.24,0.01,0.78,0.59,-4.59,1.82,1.23,52.57,-0.53,571,1,0,0
116107,95480.36,500.44,500.24,0.01,0.77,0.61,-4.54,1.90,1.36,51.88,-0.63,571,1,0,0
116143,95482.82,500.47,500.24,0.01,0.76,0.60,-4.64,1.93,1.33,51.72,-0.60,571,1,0,0
116178,95485.98,499.95,500.24,0.01,0.77,0.60,-4.56,1.98,1.27,52.05,-0.36,571,1,0,0
116218,95480.74,500.41,500.24,0.01,0.77,0.60,-4.62,1.87,1.46,51.95,-0.62,571,1,0,0
116254,95482.10,500.29,500.24,0.01,0.76,0.60,-4.81,2.03,1.28,51.84,-0.33,571,1,0,0
116289,95480.02,500.20,500.24,0.01,0.77,0.60,-4.58,2.01,1.21,52.04,-0.62,571,1,0,0
116325,95480.36,500.44,500.24,0.01,0.77,0.59,-4.71,1.84,1.34,52.31,-0.87,571,1,0,0
116361,95484.91,500.04,500.24,0.01,0.76,0.60,-4.80,1.83,1.22,51.75,-0.39,571,1,0,0
116397,95477.21,500.72,500.24,0.01,0.78,0.61,-4.58,1.77,1.37,52.12,-0.44,571,1,0,0
116436,95483.55,499.95,500.24,0.01,0.77,0.60,-4.55,1.79,1.17,52.23,-0.47,571,1,0,0
116472,95485.28,500.01,500.24,0.01,0.76,0.60,-4.88,1.95,1.43,52.02,-0.82,571,1,0,0
116509,95483.55,500.29,500.24,0.01,0.77,0.60,-4.76,2.02,1.38,52.01,-0.65,571,1,0,0
116545,95482.10,500.29,500.24,0.02,0.76,0.60,-4.75,1.95,1.54,51.95,-0.95,571,1,0,0
116581,95485.28,500.01,500.24,0.00,0.76,0.60,-4.73,1.94,1.37,51.89,-0.29,571,1,0,0
116618,95488.44,499.74,500.24,0.01,0.77,0.61,-4.74,2.06,1.25,51.75,-0.30,571,1,0,0
116658,95482.82,500.23,500.24,0.01,0.77,0.60,-4.49,1.98,1.26,51.84,-0.49,571,1,0,0
116703,95485.28,499.76,500.24,0.01,0.76,0.60,-4.76,1.91,1.27,51.53,-0.82,571,1,0,0
116739,95483.17,500.20,500.24,0.01,0.76,0.61,-4.68,1.63,1.30,51.44,-0.74,571,1,0,0
116774,95482.10,500.29,500.24,0.00,0.76,0.60,-4.65,2.22,1.39,51.87,-0.29,571,1,0,0
116811,95480.02,500.47,500.24,0.01,0.76,0.60,-4.79,1.98,1.53,51.98,-0.71,571,1,0,0
116847,95480.36,500.44,500.24,0.01,0.77,0.59,-4.55,1.76,1.32,52.40,-0.79,571,1,0,0
116895,95487.71,499.80,500.24,0.01,0.76,0.60,-4.72,1.86,1.30,51.53,-0.62,571,1,0,0
116936,95484.91,500.04,500.24,0.01,0.76,0.60,-4.66,1.98,1.29,51.77,-0.73,571,1,0,0
116972,95481.72,500.04,500.24,0.01,0.77,0.60,-4.77,1.85,1.37,52.11,-0.72,571,1,0,0
117008,95481.72,500.32,500.24,0.02,0.77,0.60,-4.78,1.84,1.19,52.10,-1.06,571,1,0,0
117045,95487.34,500.85,500.24,0.01,0.76,0.60,-4.48,1.91,1.00,51.72,-0.80,571,1,0,0
117081,95481.72,500.32,500.24,0.01,0.76,0.60,-4.86,2.06,1.37,51.67,-0.38,571,1,0,0
117116,95488.78,500.44,500.24,0.01,0.77,0.61,-4.43,1.82,1.34,51.69,-0.50,571,1,0,0
117156,95476.49,500.78,500.24,0.01,0.77,0.60,-4.93,2.00,1.37,51.78,-0.67,571,1,0,0
117193,95485.28,500.01,500.24,0.01,0.76,0.60,-4.69,1.88,1.40,51.81,-0.35,571,1,0,0
117229,95482.47,500.26,500.24,0.01,0.77,0.60,-5.20,1.88,1.24,51.93,-0.43,571,1,0,0
117265,95481.72,500.26,500.24,0.01,0.76,0.60,-4.41,1.79,1.27,51.80,-0.66,571,1,0,0
117302,95487.71,499.80,500.24,0.01,0.77,0.60,-5.07,2.04,1.24,52.22,-0.53,571,1,0,0
117338,95481.72,499.76,500.24,0.01,0.77,0.60,-4.40,1.89,1.45,51.84,-0.45,571,1,0,0
117378,95481.35,500.29,500.24,0.01,0.77,0.60,-5.29,1.72,1.27,51.95,-0.86,571,1,0,0
117413,95482.47,500.26,500.24,0.01,0.77,0.60,-4.32,1.84,1.30,52.21,-0.84,571,1,0,0
117450,95481.72,499.83,500.24,0.01,0.77,0.60,-5.08,1.94,1.26,52.16,-0.69,571,1,0,0
117486,95482.10,500.29,500.24,0.00,0.77,0.60,-4.30,1.87,1.44,52.21,-0.16,571,1,0,0
117522,95486.96,499.87,500.23,0.01,0.76,0.59,-4.86,1.97,1.43,52.23,-0.71,571,1,0,0
117559,95487.34,499.83,500.23,0.01,0.77,0.60,-4.63,1.86,1.34,51.95,-0.67,571,1,0,0
117599,95484.16,500.11,500.23,0.01,0.77,0.60,-4.75,1.94,1.43,51.93,-0.33,571,1,0,0
117635,95481.72,500.32,500.23,0.01,0.77,0.59,-4.81,1.97,1.42,52.48,-0.45,571,1,0,0
117670,95475.73,500.78,500.24,0.00,0.77,0.61,-4.79,1.95,1.21,51.71,-0.26,571,1,0,0
117707,95484.16,500.11,500.23,0.02,0.76,0.60,-4.88,1.83,1.34,51.85,-0.97,571,1,0,0
117743,95478.91,500.14,500.23,0.01,0.77,0.60,-4.52,1.86,1.41,51.93,-0.75,571,1,0,0
117779,95479.28,500.54,500.24,0.01,0.76,0.61,-4.88,1.83,1.40,51.59,-0.32,571,1,0,0
117819,95483.80,500.14,500.23,0.01,0.76,0.62,-4.70,1.90,1.43,50.99,-0.64,571,1,0,0
117855,95484.16,499.87,500.23,0.01,0.77,0.60,-4.90,1.76,1.32,51.93,-0.36,571,1,0,0
117892,95481.72,500.32,500.23,0.01,0.77,0.60,-4.49,1.99,1.33,52.04,-0.36,571,1,0,0
117927,95486.61,499.89,500.23,0.01,0.77,0.60,-5.08,1.95,1.30,52.23,-0.33,571,1,0,0
117963,95477.81,500.66,500.23,0.01,0.77,0.61,-4.63,1.62,1.43,51.77,-0.39,571,1,0,0
118000,95486.96,499.87,500.23,0.01,0.77,0.60,-4.75,1.92,1.27,52.03,-0.62,571,1,0,0
118040,95481.35,500.35,500.23,0.00,0.77,0.60,-4.31,1.86,1.46,52.05,-0.10,571,1,0,0
118076,95478.19,499.55,500.23,0.01,0.77,0.60,-5.49,1.97,1.21,51.77,-0.52,571,1,0,0
118112,95486.24,499.93,500.23,0.01,0.76,0.60,-4.36,1.82,1.08,51.74,-0.71,571,1,0,0
118148,95480.61,499.93,500.23,0.01,0.77,0.60,-4.94,1.98,1.51,52.12,-0.49,571,1,0,0
118184,95480.61,500.42,500.23,0.01,0.76,0.61,-4.23,1.90,1.25,51.52,-0.73,571,1,0,0
118220,95484.16,499.87,500.23,0.01,0.77,0.60,-5.26,2.02,1.43,51.79,-0.75,571,1,0,0
118260,95481.35,500.35,500.23,0.01,0.77,0.61,-4.49,1.93,1.32,51.76,-0.46,571,1,0,0
118296,95478.91,500.57,500.23,0.01,0.77,0.60,-4.87,1.79,1.22,51.90,-0.59,571,1,0,0
118333,95480.61,500.42,500.23,0.01,0.77,0.60,-4.49,1.89,1.34,51.99,-0.66,571,1,0,0
118369,95483.80,500.11,500.23,0.01,0.76,0.60,-4.81,1.75,1.40,51.52,-0.71,571,1,0,0
118405,95484.16,500.11,500.23,0.01,0.77,0.61,-4.39,1.89,1.27,51.85,-0.68,571,1,0,0
118440,95480.24,500.17,500.23,0.01,0.76,0.60,-4.94,2.09,1.18,51.55,-0.59,571,1,0,0
118480,95483.42,500.21,500.23,0.01,0.77,0.60,-4.55,1.79,1.26,52.34,-0.41,571,1,0,0
118517,95483.42,500.17,500.23,0.01,0.75,0.63,-2.08,1.75,1.27,49.90,-0.80,571,1,0,0
118553,95483.80,499.89,500.23,0.01,0.78,0.59,-6.46,1.99,1.46,53.01,-0.38,571,1,0,0
118589,95483.42,500.17,500.23,0.02,0.80,0.60,-7.51,2.13,0.61,52.87,-1.15,571,1,0,0
118626,95486.24,499.93,500.23,0.01,0.81,0.58,-11.98,1.66,1.65,54.34,-0.42,571,1,0,0
118662,95480.61,500.42,500.23,0.01,0.76,0.57,-12.98,2.50,3.09,53.18,-0.35,571,1,0,0
118702,95480.61,500.35,500.23,0.00,0.83,0.63,-37.34,-2.93,7.58,52.97,-0.24,571,1,0,0
118747,95486.24,499.93,500.23,0.00,0.80,0.85,-101.68,-21.41,12.40,43.03,-0.23,571,1,0,0
118782,95485.48,499.89,500.23,0.04,0.61,0.67,-32.78,-19.66,14.82,42.14,-2.61,571,1,0,0
118819,95486.24,499.93,500.23,0.05,0.78,0.70,-10.51,-18.25,17.01,48.10,-2.49,571,1,0,0
118855,95483.42,500.76,500.23,0.06,0.70,0.73,-58.90,-24.19,17.07,43.57,-3.28,571,1,0,0
118904,95491.85,500.24,500.23,0.11,0.62,0.72,-4.45,-20.68,20.69,40.66,-6.73,571,1,0,0
118944,95479.14,500.45,500.23,0.09,0.66,0.66,-0.62,-17.65,20.86,45.12,-5.41,571,1,0,0
118980,95485.10,500.03,500.23,0.15,0.61,0.65,-48.11,-18.54,16.19,43.07,-9.33,571,1,0,0
119017,95477.43,500.42,500.23,0.17,0.58,0.68,-32.21,-13.58,15.32,40.49,-10.51,571,1,0,0
119053,95479.14,500.55,500.23,0.14,0.58,0.79,-17.29,-11.86,13.17,35.97,-8.20,571,1,0,0
119089,95480.99,500.39,500.23,0.18,0.55,0.71,-35.26,-14.65,8.64,37.83,-11.12,571,1,0,0
119126,95481.57,500.34,500.23,0.18,0.67,0.68,-22.84,-10.08,12.34,44.58,-10.37,571,1,0,0
119165,95477.81,500.66,500.23,0.22,0.59,0.69,-28.16,-6.55,17.42,40.55,-13.49,571,1,0,0
119202,95480.24,500.45,500.23,0.20,0.47,0.68,-38.74,-2.81,13.81,34.26,-13.79,571,1,0,0
119238,95474.63,500.94,500.23,0.21,0.47,0.75,-34.77,0.84,8.32,32.05,-13.57,571,1,0,0
119274,95483.80,500.14,500.23,0.21,0.46,0.85,-55.21,-2.10,3.87,28.35,-12.56,571,1,0,0
119311,95480.61,500.45,500.23,0.22,0.45,0.87,-18.70,-3.72,2.98,27.34,-12.64,571,1,0,0
119347,95483.05,500.21,500.23,0.21,0.54,0.82,14.85,-3.50,5.73,33.15,-12.12,571,1,0,0
119387,95479.49,500.52,500.24,0.23,0.52,0.76,-29.14,-6.23,6.01,34.33,-13.75,571,1,0,0
119422,95474.63,500.45,500.24,0.23,0.45,0.80,-30.65,-5.00,5.80,29.32,-14.16,571,1,0,0
119459,95474.63,500.94,500.24,0.24,0.44,0.82,10.94,-3.39,5.94,28.21,-14.39,571,1,0,0
119495,95482.67,499.99,500.24,0.24,0.47,0.75,-3.23,-3.06,4.10,32.27,-15.41,571,1,0,0
119532,95479.49,500.52,500.24,0.25,0.43,0.75,0.79,1.27,1.98,29.72,-16.28,571,1,0,0
119568,95485.10,500.52,500.24,0.23,0.52,0.77,1.56,3.80,0.92,33.72,-14.02,571,1,0,0
119608,95476.33,500.79,500.24,0.25,0.49,0.79,-23.84,1.59,0.75,31.70,-15.33,571,1,0,0
119644,95473.52,501.04,500.24,0.23,0.46,0.79,-5.09,3.16,2.37,29.99,-14.36,571,1,0,0
119680,95479.14,500.55,500.24,0.24,0.45,0.80,14.63,5.39,2.33,29.65,-14.79,571,1,0,0
119716,95474.63,501.04,500.25,0.30,0.48,0.94,-9.03,0.80,0.92,27.14,-16.08,571,1,0,0
119752,95482.30,500.27,500.25,0.21,0.59,1.00,-13.05,3.72,-0.46,30.42,-10.37,571,1,0,0
119788,95483.05,500.30,500.25,0.22,0.45,0.84,9.66,1.73,0.11,27.98,-13.16,571,1,0,0
119828,95479.86,500.42,500.25,0.25,0.51,0.78,12.42,2.75,-0.61,33.15,-15.20,571,1,0,0
119865,95476.67,500.76,500.25,0.22,0.54,0.77,-13.34,2.41,-1.07,35.23,-13.27,571,1,0,0
119901,95479.86,500.48,500.25,0.23,0.50,0.80,-30.89,1.63,-1.00,31.72,-13.90,571,1,0,0
119937,95480.24,500.45,500.25,0.24,0.48,0.83,-5.99,2.46,1.53,30.11,-13.90,571,1,0,0
119973,95476.67,500.76,500.25,0.23,0.49,0.81,5.95,2.85,2.39,31.00,-13.53,571,1,0,0
120009,95469.00,501.43,500.25,0.24,0.49,0.80,-9.14,0.75,1.34,31.22,-14.12,571,1,0,0
120049,95475.38,501.04,500.26,0.23,0.48,0.80,0.33,1.95,1.47,31.17,-14.09,571,1,0,0
120085,95482.30,500.27,500.26,0.23,0.47,0.77,-11.18,2.26,-0.14,31.07,-14.43,571,1,0,0
120121,95479.86,500.21,500.26,0.23,0.49,0.78,-13.25,3.73,-0.28,31.93,-14.15,571,1,0,0
120158,95480.24,500.45,500.26,0.23,0.49,0.82,-7.01,4.77,0.18,30.81,-13.66,571,1,0,0
120194,95480.99,500.21,500.26,0.23,0.49,0.81,-2.84,4.53,1.06,31.06,-13.44,571,1,0,0
120229,95483.05,500.21,500.26,0.23,0.48,0.79,-16.40,3.68,0.31,31.18,-14.16,571,1,0,0
120269,95483.05,500.21,500.26,0.23,0.48,0.75,-24.96,6.03,-0.39,32.31,-14.59,571,1,0,0
120305,95480.24,500.45,500.26,0.22,0.44,0.84,-8.64,8.16,0.11,27.33,-12.90,571,1,0,0
120342,95479.14,500.55,500.26,0.22,0.42,0.69,-27.02,10.53,-2.69,31.63,-15.30,571,1,0,0
120378,95485.48,499.99,500.26,0.20,0.49,0.77,-75.24,16.28,-2.78,32.54,-12.17,571,1,0,0
120415,95480.24,500.45,500.26,0.19,0.37,0.91,5.94,17.59,-0.79,22.31,-11.11,571,1,0,0
120451,95480.99,500.39,500.26,0.20,0.41,0.78,-24.35,18.17,-3.05,27.75,-12.52,571,1,0,0
120491,95475.00,500.91,500.26,0.18,0.42,0.84,-15.01,21.43,-2.59,26.27,-10.65,571,1,0,0
120526,95475.00,500.39,500.26,0.15,0.37,0.86,-16.25,21.83,-2.62,23.36,-9.26,571,1,0,0
120563,95483.80,500.14,500.26,0.16,0.38,0.80,-17.74,23.77,-4.17,25.44,-10.38,571,1,0,0
120599,95474.63,500.39,500.26,0.15,0.29,0.80,-17.40,26.95,-5.47,19.81,-9.70,571,1,0,0
120635,95472.92,501.09,500.26,0.11,0.36,0.95,-17.70,25.22,-6.11,20.72,-6.15,571,1,0,0
120675,95476.10,500.81,500.26,0.11,0.34,0.87,-20.08,24.52,-7.22,21.15,-7.03,571,1,0,0
120712,95481.35,500.35,500.26,0.08,0.37,0.96,-18.08,22.58,-8.25,20.93,-4.23,571,1,0,0
120748,95481.35,500.35,500.26,0.08,0.37,0.89,-12.23,19.08,-6.87,22.39,-4.79,571,1,0,0
120793,95482.10,500.29,500.26,0.05,0.39,0.95,-20.93,15.94,-6.19,22.27,-2.96,571,1,0,0
120828,95481.72,500.32,500.26,0.03,0.38,1.00,8.46,8.74,-0.60,20.67,-1.85,571,1,0,0
120878,95478.91,500.57,500.27,0.06,0.34,0.87,2.56,3.62,1.27,21.35,-3.65,571,1,0,0
120916,95482.10,500.29,500.27,0.07,0.33,0.88,-2.20,7.10,0.21,20.39,-4.24,571,1,0,0
120953,95479.67,500.50,500.27,0.03,0.35,0.91,8.36,7.71,-1.36,20.91,-1.63,571,1,0,0
120989,95479.28,500.81,500.27,0.04,0.35,0.89,20.89,7.13,-1.68,21.61,-2.46,571,1,0,0
121025,95480.02,500.47,500.27,0.03,0.38,0.90,34.88,8.47,-0.91,22.75,-1.83,571,1,0,0
121061,95482.10,500.29,500.27,0.03,0.41,0.89,50.13,6.29,0.14,24.59,-1.99,571,1,0,0
121097,95477.93,500.65,500.27,0.03,0.45,0.86,54.24,3.83,0.65,27.83,-1.74,571,1,0,0
121134,95477.55,500.69,500.27,0.04,0.50,0.80,44.87,2.82,0.99,32.00,-2.57,571,1,0,0
121174,95483.92,500.13,500.27,0.04,0.52,0.79,12.42,4.35,-0.75,33.64,-2.44,571,1,0,0
121209,95482.82,500.16,500.27,0.03,0.50,0.83,12.45,4.20,0.79,30.96,-1.92,571,1,0,0
121245,95486.36,499.92,500.27,0.03,0.50,0.80,32.46,5.60,1.82,31.84,-1.52,571,1,0,0
121281,95481.50,500.23,500.27,0.02,0.53,0.78,61.05,9.55,2.69,34.16,-1.44,571,1,0,0
121317,95485.03,500.03,500.27,0.03,0.60,0.82,85.24,8.86,3.19,36.37,-1.45,571,1,0,0
121353,95484.68,500.31,500.27,0.01,0.70,0.71,74.56,6.57,2.78,44.55,-0.36,571,1,0,0
121393,95484.30,500.10,500.27,0.02,0.71,0.66,25.83,5.55,0.39,47.13,-1.25,571,1,0,0
121430,95479.07,500.56,500.27,0.02,0.71,0.66,-5.60,3.27,0.85,47.03,-0.96,571,1,0,0
121465,95484.30,500.10,500.27,0.01,0.67,0.70,-12.83,3.38,0.37,43.86,-0.69,571,1,0,0
121501,95483.55,500.83,500.27,0.02,0.66,0.70,-4.21,3.01,1.52,43.14,-1.10,571,1,0,0
121537,95482.22,500.28,500.27,0.01,0.66,0.75,1.08,4.18,1.69,41.46,-0.38,571,1,0,0
121573,95483.92,500.28,500.27,0.02,0.66,0.70,5.90,4.68,2.27,43.48,-1.33,571,1,0,0
121613,95479.78,500.49,500.27,0.02,0.60,0.70,26.42,4.81,0.02,40.40,-1.47,571,1,0,0
121649,95485.03,500.03,500.27,0.02,0.65,0.66,67.95,3.91,2.45,44.18,-1.12,571,1,0,0
121684,95482.22,500.28,500.27,-0.01,0.79,0.65,68.43,3.17,-1.77,50.68,0.63,571,1,0,0
121721,95485.41,500.06,500.27,0.02,0.86,0.49,-16.32,1.46,1.69,60.46,-1.06,571,1,0,0
121757,95479.07,500.56,500.27,0.01,0.68,0.67,-19.00,1.82,1.39,45.43,-0.65,571,1,0,0
121793,95485.03,500.52,500.27,0.01,0.75,0.66,12.57,1.85,1.08,48.71,-0.66,571,1,0,0
121833,95477.36,500.70,500.27,0.01,0.78,0.59,-5.27,1.87,1.29,52.92,-0.79,571,1,0,0
121869,95482.22,500.28,500.27,0.01,0.73,0.64,-6.89,1.72,1.26,48.62,-0.37,571,1,0,0
121905,95474.17,500.98,500.27,0.01,0.76,0.61,2.59,1.80,1.01,51.10,-0.59,571,1,0,0
121940,95479.41,500.52,500.27,0.01,0.78,0.61,-6.83,1.87,1.25,51.98,-0.72,571,1,0,0
121976,95480.17,500.46,500.27,0.01,0.75,0.62,-0.10,2.08,1.13,50.35,-0.65,571,1,0,0
122012,95481.50,500.28,500.27,0.00,0.77,0.61,-3.18,1.92,1.24,51.57,-0.24,571,1,0,0
122052,95476.99,500.56,500.28,0.01,0.76,0.62,-5.66,2.00,1.43,50.60,-0.56,571,1,0,0
122088,95485.41,500.00,500.27,0.01,0.76,0.61,-2.77,1.87,1.40,51.22,-0.86,571,1,0,0
122124,95478.69,500.10,500.27,0.01,0.76,0.60,-5.16,1.72,1.37,51.73,-0.72,571,1,0,0
122161,95476.60,500.77,500.28,0.01,0.76,0.61,-4.49,1.72,1.49,50.86,-0.53,571,1,0,0
122196,95475.88,500.83,500.28,0.01,0.76,0.61,-4.07,1.69,1.30,51.42,-0.63,571,1,0,0
122232,95482.60,500.28,500.28,0.01,0.76,0.61,-4.89,1.95,1.27,51.25,-0.59,571,1,0,0
122272,95479.07,500.59,500.28,0.01,0.75,0.62,-4.23,2.03,1.40,50.52,-0.62,571,1,0,0
122308,95479.78,500.49,500.28,0.01,0.76,0.61,-4.26,1.93,1.37,51.31,-0.30,571,1,0,0
122344,95483.35,499.93,500.28,0.01,0.75,0.62,-4.60,1.66,1.28,50.72,-0.42,571,1,0,0
122380,95480.17,500.46,500.28,0.01,0.76,0.61,-4.65,1.69,1.30,51.12,-0.66,571,1,0,0
122416,95480.17,500.46,500.28,0.01,0.76,0.61,-4.78,1.89,1.37,51.27,-0.53,571,1,0,0
122451,95480.17,500.46,500.28,0.01,0.76,0.61,-4.64,1.97,1.11,51.08,-0.70,571,1,0,0
122491,95478.08,500.39,500.28,0.01,0.76,0.61,-4.86,1.79,1.30,51.34,-0.63,571,1,0,0
122527,95480.89,500.39,500.28,0.01,0.76,0.61,-4.65,1.91,1.47,51.07,-0.50,571,1,0,0
122563,95480.55,500.85,500.28,0.01,0.76,0.61,-4.45,1.94,1.11,51.16,-0.73,571,1,0,0
122600,95480.55,500.43,500.28,0.00,0.76,0.61,-4.52,1.76,1.27,51.01,-0.27,571,1,0,0
122636,95477.74,500.67,500.28,0.01,0.76,0.62,-4.53,1.79,1.26,51.05,-0.41,571,1,0,0
122672,95481.24,500.36,500.28,0.01,0.76,0.62,-4.70,1.75,1.23,50.74,-0.54,571,1,0,0
122712,95476.38,500.92,500.28,0.01,0.76,0.60,-4.61,1.92,1.41,51.47,-0.46,571,1,0,0
122747,95475.28,500.89,500.29,0.01,0.76,0.61,-4.55,2.13,1.23,51.13,-0.39,571,1,0,0
122783,95474.92,500.08,500.29,0.01,0.76,0.61,-4.55,1.91,1.70,51.59,-0.79,571,1,0,0
122828,95478.43,500.61,500.29,0.01,0.76,0.61,-4.51,1.83,1.22,51.21,-0.53,571,1,0,0
122876,95479.57,500.51,500.29,0.01,0.76,0.61,-4.52,1.69,1.08,51.26,-0.57,571,1,0,0
122912,95482.37,500.51,500.29,0.01,0.76,0.61,-4.50,1.78,1.26,51.28,-0.63,571,1,0,0
122952,95479.19,500.54,500.29,0.01,0.76,0.61,-4.81,1.96,1.27,51.14,-0.83,571,1,0,0
122988,95479.19,500.54,500.29,0.01,0.75,0.62,-4.77,1.94,1.17,50.67,-0.45,571,1,0,0
123024,95482.00,500.30,500.29,0.00,0.75,0.62,-4.56,1.84,1.38,50.74,-0.27,571,1,0,0
123060,95478.24,500.66,500.29,0.01,0.76,0.60,-4.72,1.99,1.47,51.61,-0.59,571,1,0,0
123096,95485.91,499.96,500.29,0.01,0.76,0.61,-4.65,1.90,1.31,51.12,-0.74,571,1,0,0
123131,95481.05,500.20,500.29,0.00,0.76,0.61,-4.68,1.72,1.42,51.12,-0.26,571,1,0,0
123171,95484.92,500.29,500.29,0.01,0.76,0.62,-4.67,2.08,1.02,50.96,-0.51,571,1,0,0
123207,95481.42,500.35,500.29,0.01,0.76,0.61,-4.62,2.00,1.40,51.12,-0.58,571,1,0,0
123243,95477.86,500.66,500.29,0.01,0.76,0.61,-4.49,1.78,1.38,51.17,-0.83,571,1,0,0
123279,95478.96,500.38,500.29,0.01,0.76,0.61,-4.63,1.73,1.22,51.16,-0.33,571,1,0,0
123315,95481.77,500.32,500.29,0.01,0.76,0.61,-4.69,2.17,1.49,51.12,-0.56,571,1,0,0
123351,95483.85,500.14,500.29,0.01,0.76,0.61,-4.59,1.86,1.53,51.11,-0.86,571,1,0,0
123472,95483.85,500.63,500.29,0.01,0.76,0.61,-4.68,2.03,1.43,51.10,-0.39,571,1,0,0
123507,95487.74,499.80,500.29,0.01,0.75,0.61,-4.81,1.86,1.48,50.86,-0.39,571,1,0,0
123543,95482.49,500.26,500.29,0.01,0.76,0.60,-4.56,1.74,1.41,51.49,-0.62,571,1,0,0
123579,95482.87,500.26,500.29,0.01,0.76,0.61,-4.59,2.05,1.31,51.08,-0.53,571,1,0,0
123615,95482.11,500.29,500.29,0.01,0.76,0.61,-4.67,1.79,1.35,51.31,-0.70,571,1,0,0
123651,95479.69,500.56,500.29,0.01,0.76,0.61,-4.55,2.05,1.28,51.14,-0.50,571,1,0,0
123686,95477.25,500.71,500.29,0.01,0.76,0.61,-4.71,1.90,1.46,51.14,-0.35,571,1,0,0
123726,95481.77,500.32,500.29,0.02,0.76,0.61,-4.50,2.05,1.43,50.94,-1.02,571,1,0,0
123762,95478.96,500.56,500.29,0.00,0.76,0.61,-4.92,2.01,1.17,50.92,-0.24,571,1,0,0
123799,95480.82,500.47,500.29,0.01,0.76,0.61,-4.88,1.84,1.24,51.46,-0.50,571,1,0,0
123835,95483.97,500.13,500.29,0.01,0.76,0.62,-4.66,1.91,1.47,50.85,-0.49,571,1,0,0
123872,95480.82,500.16,500.29,0.00,0.76,0.61,-4.90,1.72,1.55,51.45,-0.27,571,1,0,0
123908,95480.82,500.40,500.29,0.02,0.76,0.61,-4.68,1.82,1.39,51.40,-0.96,571,1,0,0
123948,95480.82,500.40,500.29,0.01,0.76,0.61,-4.66,1.83,1.10,51.44,-0.74,571,1,0,0
123983,95483.97,500.34,500.29,0.01,0.76,0.61,-4.81,1.95,1.21,51.07,-0.81,571,1,0,0
124020,95479.69,500.50,500.29,0.01,0.76,0.62,-4.82,1.90,1.27,50.97,-0.79,571,1,0,0
124056,95483.25,500.43,500.29,0.01,0.76,0.61,-4.76,1.88,1.35,51.06,-0.43,571,1,0,0
124092,95483.63,500.16,500.29,0.01,0.76,0.61,-4.65,2.11,1.32,51.36,-0.63,571,1,0,0
124129,95482.49,500.26,500.29,0.01,0.76,0.61,-4.76,1.96,1.35,51.19,-0.50,571,1,0,0
124169,95483.63,500.16,500.29,0.00,0.76,0.61,-4.82,1.79,1.42,51.53,-0.24,571,1,0,0
124205,95477.63,500.68,500.29,0.01,0.75,0.61,-4.57,1.97,1.34,50.87,-0.50,571,1,0,0
124241,95479.31,500.53,500.29,0.01,0.76,0.60,-4.97,1.94,1.38,51.66,-0.46,571,1,0,0
124277,95482.87,500.16,500.29,0.01,0.76,0.61,-4.75,1.98,1.30,51.31,-0.42,571,1,0,0
124313,95482.87,500.22,500.29,0.01,0.76,0.61,-4.67,1.75,1.40,51.23,-0.43,571,1,0,0
124350,95480.07,501.02,500.30,0.01,0.76,0.61,-4.50,1.92,1.26,51.37,-0.71,571,1,0,0
124390,95480.44,500.26,500.30,0.01,0.76,0.60,-4.65,1.93,1.21,51.45,-0.39,571,1,0,0
124426,95485.30,500.01,500.29,0.01,0.76,0.61,-4.75,2.01,1.36,51.12,-0.67,571,1,0,0
124462,95479.69,500.26,500.29,0.01,0.77,0.62,-5.05,1.82,1.34,51.19,-0.73,571,1,0,0
124498,95480.44,500.43,500.30,0.00,0.76,0.61,-4.55,1.92,1.37,51.41,-0.26,571,1,0,0
124534,95479.69,500.50,500.30,0.01,0.76,0.61,-4.65,1.97,1.30,51.20,-0.67,571,1,0,0
124571,95487.74,499.80,500.29,0.01,0.76,0.61,-4.74,1.85,1.30,51.16,-0.40,571,1,0,0
124611,95481.77,500.26,500.29,0.01,0.76,0.61,-4.59,2.10,1.22,51.38,-0.37,571,1,0,0
124647,95484.58,500.07,500.29,0.01,0.76,0.61,-4.65,1.72,1.50,50.95,-0.47,571,1,0,0
124683,95482.87,500.50,500.29,0.01,0.76,0.61,-4.68,1.90,1.45,51.18,-0.81,571,1,0,0
124720,95481.55,500.34,500.29,0.01,0.76,0.61,-4.62,1.81,1.04,50.92,-0.56,571,1,0,0
124755,95477.63,500.40,500.29,0.01,0.77,0.61,-4.78,1.88,1.43,51.68,-0.77,571,1,0,0
124791,95486.06,499.94,500.29,0.01,0.76,0.62,-4.81,1.70,1.24,50.85,-0.56,571,1,0,0
124831,95485.68,499.98,500.29,0.01,0.76,0.61,-4.69,1.84,1.43,51.36,-0.86,571,1,0,0
124868,95475.20,500.89,500.29,0.01,0.76,0.61,-4.75,2.15,1.53,51.29,-0.44,571,1,0,0
124925,95480.82,500.68,500.30,0.01,0.76,0.61,-4.62,1.87,1.08,51.07,-0.62,571,1,0,0
124962,95478.01,500.65,500.30,0.01,0.77,0.60,-4.74,1.78,1.51,51.84,-0.66,571,1,0,0
124998,95481.55,500.34,500.30,0.01,0.76,0.60,-4.76,1.75,1.27,51.57,-0.73,571,1,0,0
125034,95478.36,500.62,500.30,0.00,0.76,0.61,-4.57,1.85,1.27,51.55,-0.09,571,1,0,0
125074,95478.01,500.65,500.30,0.02,0.76,0.60,-4.66,1.90,1.29,51.61,-0.93,571,1,0,0
125111,95483.97,500.13,500.30,0.01,0.76,0.61,-4.81,1.94,1.21,51.11,-0.53,571,1,0,0
125147,95478.74,500.62,500.30,0.00,0.76,0.61,-4.83,1.85,1.30,51.00,-0.26,571,1,0,0
125182,95480.07,500.47,500.30,0.01,0.76,0.61,-4.72,2.16,1.49,51.27,-0.62,571,1,0,0
125218,95480.82,500.40,500.30,0.01,0.76,0.62,-4.61,2.11,1.32,50.92,-0.70,571,1,0,0
125255,95478.36,500.62,500.30,0.01,0.76,0.61,-5.05,1.95,1.48,51.40,-0.72,571,1,0,0
125295,95481.55,500.34,500.30,0.01,0.76,0.61,-4.59,1.82,1.44,51.40,-0.46,571,1,0,0
125331,95481.55,500.09,500.30,0.01,0.76,0.61,-4.81,2.10,1.33,51.19,-0.58,571,1,0,0
125367,95485.10,500.03,500.30,0.01,0.76,0.61,-4.66,1.82,1.47,51.54,-0.47,571,1,0,0
125404,95487.92,499.78,500.30,0.01,0.76,0.61,-4.75,1.80,1.46,51.14,-0.30,571,1,0,0
125440,95475.55,500.86,500.30,0.01,0.76,0.61,-4.66,1.78,1.32,51.24,-0.44,571,1,0,0
125475,95485.10,500.03,500.30,0.01,0.76,0.61,-4.65,1.84,1.21,51.07,-0.59,571,1,0,0
125515,95482.30,500.27,500.30,0.01,0.76,0.61,-4.78,1.96,1.59,51.44,-0.55,571,1,0,0
125552,95479.87,500.55,500.30,0.00,0.75,0.61,-4.78,1.88,1.46,50.90,-0.26,571,1,0,0
125588,95479.87,500.48,500.30,0.01,0.76,0.62,-4.78,1.91,1.42,50.81,-0.59,571,1,0,0
125624,95486.56,500.58,500.30,0.01,0.76,0.62,-4.80,1.93,1.43,50.89,-0.67,571,1,0,0
125661,95483.03,500.21,500.30,0.01,0.76,0.60,-4.69,1.80,1.18,51.48,-0.81,571,1,0,0
125697,95483.03,499.72,500.30,0.01,0.76,0.61,-4.62,1.78,1.50,51.49,-0.39,571,1,0,0
125736,95483.75,500.15,500.30,0.00,0.76,0.61,-4.78,1.69,1.52,51.38,-0.16,571,1,0,0
125772,95478.51,500.60,500.30,0.01,0.76,0.60,-4.77,1.95,1.48,51.44,-0.43,571,1,0,0
125808,95478.89,500.57,500.30,0.01,0.76,0.60,-4.78,2.05,1.42,51.69,-0.58,571,1,0,0
125845,95486.56,499.87,500.30,0.01,0.76,0.61,-4.48,1.79,1.30,51.08,-0.30,571,1,0,0
125881,95480.94,500.39,500.30,0.01,0.76,0.61,-5.00,1.73,1.25,51.05,-0.34,571,1,0,0
125917,95481.69,500.36,500.30,0.01,0.76,0.61,-4.59,1.91,1.36,51.46,-0.50,571,1,0,0
125957,95481.32,499.87,500.30,0.01,0.76,0.61,-4.82,1.98,1.35,51.33,-0.86,571,1,0,0
125993,95476.80,500.75,500.30,0.01,0.76,0.61,-4.82,2.04,1.24,51.09,-0.46,571,1,0,0
126029,95482.42,500.02,500.30,0.00,0.76,0.60,-4.58,1.91,1.53,51.51,-0.29,571,1,0,0
126065,95473.27,501.06,500.30,0.01,0.76,0.61,-4.84,1.91,1.53,51.21,-0.65,571,1,0,0
126101,95479.61,500.51,500.30,0.01,0.76,0.60,-4.56,2.08,1.27,51.71,-0.30,571,1,0,0
126138,95480.36,500.44,500.30,0.01,0.76,0.61,-4.56,1.84,1.24,51.37,-0.56,571,1,0,0
126174,95490.85,499.52,500.30,0.01,0.76,0.61,-4.64,2.03,1.34,51.29,-0.52,571,1,0,0
126214,95482.42,500.26,500.30,0.01,0.76,0.61,-4.91,1.84,1.24,51.10,-0.53,571,1,0,0
126249,95480.36,500.54,500.30,0.00,0.76,0.61,-4.43,1.98,1.34,51.26,-0.17,571,1,0,0
126285,95479.99,500.47,500.30,0.01,0.76,0.62,-4.96,1.91,1.34,50.97,-0.56,571,1,0,0
126322,95479.61,500.44,500.30,0.01,0.76,0.61,-4.72,1.86,1.13,51.41,-0.52,571,1,0,0
126358,95485.23,500.02,500.30,0.01,0.76,0.61,-4.81,1.91,1.36,51.00,-0.50,571,1,0,0
126394,95480.74,500.65,500.30,0.01,0.76,0.61,-4.68,1.69,1.35,51.43,-0.69,571,1,0,0
126434,95483.17,500.20,500.30,0.01,0.77,0.60,-4.81,1.91,1.44,51.85,-0.64,571,1,0,0
126471,95482.42,500.26,500.30,0.01,0.76,0.61,-6.26,1.84,1.43,51.09,-0.40,571,1,0,0
126507,95485.60,499.98,500.30,0.01,0.77,0.60,-6.26,1.94,1.36,52.32,-0.49,571,1,0,0
126542,95485.60,499.95,500.30,0.01,0.75,0.62,-4.56,1.95,1.30,50.31,-0.80,571,1,0,0
126578,95477.93,500.65,500.30,0.00,0.77,0.60,-3.93,2.04,1.24,52.33,-0.26,571,1,0,0
126615,95480.36,500.51,500.30,0.01,0.75,0.62,-8.29,1.98,1.69,50.66,-0.54,571,1,0,0
126655,95485.60,501.21,500.30,0.01,0.77,0.61,-6.46,2.09,1.39,51.79,-0.63,571,1,0,0
126691,95479.61,500.51,500.30,0.01,0.75,0.62,-7.98,1.87,1.40,50.57,-0.34,571,1,0,0
126727,95479.99,500.47,500.30,0.00,0.76,0.62,-0.34,2.00,1.28,50.84,-0.03,571,1,0,0
126763,95477.56,500.68,500.30,0.01,0.78,0.60,-16.51,2.24,1.69,52.48,-0.81,571,1,0,0
126799,95480.36,500.44,500.30,0.02,0.74,0.62,-9.06,2.04,1.70,49.90,-0.97,571,1,0,0
126835,95479.61,500.54,500.31,0.01,0.71,0.65,11.02,1.78,0.40,47.86,-0.45,571,1,0,0
126888,95476.80,500.75,500.31,-0.00,0.80,0.59,5.39,1.55,0.54,53.51,0.06,571,1,0,0
126924,95479.99,500.51,500.31,0.01,0.78,0.60,-16.34,1.81,2.08,52.53,-0.67,571,1,0,0
126969,95477.93,500.65,500.31,0.01,0.76,0.61,-7.16,1.92,1.40,51.34,-0.57,571,1,0,0
127005,95479.61,500.51,500.31,0.01,0.80,0.59,-18.91,2.33,2.50,53.45,-0.71,571,1,0,0
127041,95482.80,500.23,500.31,0.01,0.70,0.66,-12.54,1.30,1.41,46.88,-0.74,571,1,0,0
127078,95482.42,500.42,500.31,0.01,0.73,0.64,12.79,1.84,0.60,48.71,-0.40,571,1,0,0
127118,95482.04,500.54,500.31,0.01,0.78,0.59,-7.30,1.63,1.05,53.17,-0.80,571,1,0,0
127154,95482.04,500.29,500.31,-0.00,0.70,0.66,17.88,1.98,0.11,46.50,0.26,571,1,0,0
127190,95476.42,500.54,500.31,0.04,0.78,0.59,33.61,1.72,-0.93,52.97,-2.37,571,1,0,0
127225,95485.60,499.98,500.31,0.00,0.84,0.51,4.30,2.28,1.00,59.00,-0.19,571,1,0,0
127262,95479.24,500.54,500.31,0.01,0.81,0.55,-36.80,1.38,2.56,55.91,-0.37,571,1,0,0
127298,95483.55,500.16,500.31,0.02,0.72,0.65,-29.85,2.33,2.56,48.12,-1.24,571,1,0,0
127338,95474.00,500.90,500.31,0.00,0.73,0.63,16.35,1.94,0.74,49.33,-0.29,571,1,0,0
127374,95477.93,500.65,500.31,-0.00,0.83,0.54,-5.14,1.75,1.36,57.14,0.06,571,1,0,0
127410,95480.74,500.20,500.31,0.01,0.73,0.64,-14.88,1.77,1.44,49.08,-0.68,571,1,0,0
127447,95486.36,499.92,500.31,0.01,0.77,0.59,6.47,2.02,0.76,52.29,-0.65,571,1,0,0
127482,95480.74,500.16,500.31,0.01,0.79,0.58,-11.66,1.91,1.62,53.45,-0.66,571,1,0,0
127518,95480.74,500.41,500.31,0.01,0.74,0.61,-2.94,1.94,1.23,50.38,-0.51,571,1,0,0
127558,95489.52,499.64,500.31,0.01,0.79,0.59,-4.12,2.04,1.49,53.55,-0.50,571,1,0,0
127594,95477.93,500.65,500.31,0.01,0.75,0.61,-7.23,1.87,1.35,50.92,-0.62,571,1,0,0
127630,95481.82,500.41,500.31,-0.00,0.78,0.60,-1.75,2.07,1.33,52.31,0.16,571,1,0,0
127667,95475.13,500.90,500.31,0.01,0.76,0.60,-8.09,1.86,1.56,51.61,-0.43,571,1,0,0
127703,95481.82,499.86,500.31,0.00,0.77,0.60,2.51,1.79,1.25,52.29,-0.11,571,1,0,0
127738,95478.63,500.59,500.31,0.00,0.83,0.53,-40.33,1.90,3.47,57.43,-0.16,571,1,0,0
127778,95477.56,500.68,500.31,-0.01,0.82,0.70,-43.40,-5.00,3.23,49.54,0.40,571,1,0,0
127814,95481.44,500.35,500.31,0.00,0.91,0.74,-69.74,-12.89,13.33,51.06,-0.05,571,1,0,0
127851,95483.90,500.13,500.31,-0.01,0.93,0.91,-59.52,-19.68,25.48,45.59,0.45,571,1,0,0
127887,95480.36,500.44,500.31,0.01,0.99,0.93,-12.63,-29.92,45.60,46.69,-0.36,571,1,0,0
127923,95481.09,500.38,500.31,-0.03,1.01,0.83,55.01,-34.45,68.84,50.55,1.16,571,1,0,0
127960,95478.63,500.59,500.31,0.05,0.87,0.78,91.42,-35.48,86.01,48.08,-2.33,571,1,0,0
128000,95485.60,499.98,500.31,0.15,0.97,0.64,76.26,-38.02,101.84,56.72,-7.27,571,1,0,0
128035,95480.36,500.62,500.31,0.30,0.92,0.55,55.21,-37.46,120.19,59.23,-15.85,571,1,0,0
128072,95483.90,500.13,500.31,0.36,0.67,0.62,63.93,-31.44,120.00,47.27,-21.45,571,1,0,0
128108,95481.09,500.38,500.31,0.47,0.56,0.28,86.02,-28.42,147.64,63.06,-36.80,571,1,0,0
128144,95480.74,500.41,500.31,0.83,0.24,0.40,72.49,-22.69,138.69,30.46,-60.88,571,1,0,0
128181,95483.90,500.87,500.31,0.59,0.14,0.17,86.30,-34.00,162.75,40.80,-69.58,571,1,0,0
128221,95478.63,500.35,500.31,0.74,-0.02,-0.27,74.59,-29.88,145.52,-176.49,-70.12,571,1,0,0
128257,95481.82,500.31,500.31,1.03,0.58,0.40,74.61,-37.90,153.45,55.31,-55.63,571,1,0,0
128293,95478.63,500.59,500.31,1.22,0.41,0.08,53.86,-48.81,148.06,78.75,-71.13,571,1,0,0
128329,95478.28,500.62,500.32,1.26,0.21,0.15,105.03,-52.30,144.49,55.35,-78.47,571,1,0,0
128366,95481.44,500.35,500.32,1.23,0.03,0.11,93.17,-56.35,140.63,13.51,-84.95,571,1,0,0
128402,95478.63,500.59,500.32,1.03,-0.01,0.13,108.07,-49.89,138.50,-4.57,-83.02,571,1,0,0
128442,95473.77,501.08,500.32,0.95,-0.05,-0.05,162.67,-35.29,132.91,-134.43,-85.89,571,1,0,0
128479,95473.39,501.05,500.32,0.95,0.05,-0.19,90.79,-17.07,127.78,166.49,-78.47,571,1,0,0
128515,95473.02,501.11,500.32,0.86,0.06,-0.04,34.84,-8.31,124.14,125.05,-84.83,571,1,0,0
128550,95474.75,500.93,500.32,0.78,-0.02,-0.04,122.99,2.59,115.65,-147.18,-86.69,571,1,0,0
128587,95473.02,500.87,500.33,0.88,-0.02,-0.09,88.69,16.30,103.09,-166.89,-84.24,571,1,0,0
128627,95477.56,501.05,500.33,0.96,0.00,-0.06,62.04,27.33,94.44,179.26,-86.69,571,1,0,0
128664,95472.66,501.11,500.33,0.88,-0.03,-0.06,77.90,28.45,87.37,-153.84,-85.90,571,1,0,0
128700,95475.13,500.90,500.33,1.02,-0.02,-0.08,123.28,32.64,84.00,-164.73,-85.44,571,1,0,0
128736,95467.05,501.60,500.33,0.87,-0.08,-0.07,44.27,37.41,74.23,-133.37,-82.91,571,1,0,0
128773,95474.00,501.24,500.34,0.89,-0.08,-0.01,43.37,36.85,64.91,-98.07,-84.65,571,1,0,0
128808,95472.66,501.11,500.34,0.91,-0.06,-0.04,57.44,40.21,55.69,-120.76,-85.69,571,1,0,0
128862,95472.66,500.62,500.34,0.85,-0.03,0.01,48.00,46.94,36.63,-73.08,-88.04,571,1,0,0
128898,95480.36,500.44,500.34,0.76,-0.10,0.03,8.88,48.32,20.64,-73.84,-81.99,571,1,0,0
128934,95472.66,501.11,500.34,0.82,-0.24,-0.12,22.26,31.50,11.80,-115.57,-71.87,571,1,0,0
128970,95471.94,501.18,500.34,0.75,-0.39,0.33,16.69,30.25,8.74,-49.51,-55.91,571,1,0,0
129015,95477.93,500.65,500.35,0.78,-0.38,0.09,5.96,48.67,8.64,-77.11,-63.49,571,1,0,0
129052,95478.28,500.62,500.35,0.98,-0.38,-0.01,-7.69,34.84,-4.09,-91.57,-69.03,571,1,0,0
129092,95474.37,500.96,500.35,1.01,-0.45,0.35,37.84,37.44,-4.93,-52.04,-60.66,571,1,0,0
129128,95477.17,500.72,500.35,0.89,-0.38,0.47,67.66,36.50,-14.88,-39.28,-55.76,571,1,0,0
129164,95479.61,500.57,500.35,0.85,-0.28,0.30,46.20,32.01,-20.94,-43.07,-64.58,571,1,0,0
129201,95479.24,500.54,500.35,0.93,-0.23,0.33,31.07,42.23,-11.77,-34.65,-66.60,571,1,0,0
129236,95473.27,500.54,500.35,0.83,-0.20,0.37,44.05,51.10,-6.14,-27.91,-63.24,571,1,0,0
129276,95484.50,500.02,500.35,0.78,-0.21,0.29,44.54,52.97,-4.82,-35.85,-65.39,571,1,0,0
129313,95489.36,499.65,500.35,0.79,-0.15,0.33,29.73,50.67,-8.48,-23.68,-65.21,571,1,0,0
129349,95488.30,499.99,500.35,0.74,-0.16,0.53,25.98,52.54,-14.35,-16.62,-52.83,571,1,0,0
129385,95482.67,500.24,500.35,0.66,-0.15,0.53,51.56,52.80,-18.94,-15.53,-50.25,571,1,0,0
129422,95478.36,500.62,500.35,0.73,-0.16,0.56,20.42,48.74,-22.38,-16.28,-51.54,571,1,0,0
129458,95490.35,499.57,500.35,0.74,-0.11,0.63,45.33,46.39,-23.37,-10.17,-49.41,571,1,0,0
129498,95492.78,499.36,500.34,0.76,-0.12,0.63,34.79,41.17,-26.15,-10.92,-50.14,571,1,0,0
129534,95493.16,499.32,500.34,0.77,-0.12,0.69,19.75,38.08,-22.29,-9.94,-47.78,571,1,0,0
129570,95495.21,499.11,500.34,0.67,-0.05,0.84,15.40,40.11,-22.67,-3.58,-38.22,571,1,0,0
129606,95492.40,499.39,500.33,0.74,-0.03,0.75,52.46,43.30,-23.74,-1.97,-44.73,571,1,0,0
129643,95506.44,498.13,500.33,0.68,-0.05,0.65,45.68,38.66,-24.79,-4.18,-45.87,571,1,0,0
129679,95496.35,499.04,500.32,0.78,-0.15,0.70,-9.29,33.79,-17.36,-12.08,-47.67,571,1,0,0
129719,95495.59,499.11,500.32,0.61,0.06,0.81,5.75,32.96,-15.06,4.02,-37.18,571,1,0,0
129755,95490.72,499.54,500.32,0.61,0.07,0.84,27.82,34.37,-12.79,4.99,-35.76,571,1,0,0
129790,95503.03,498.46,500.31,0.67,0.03,0.86,17.75,35.26,-9.80,2.31,-37.76,571,1,0,0
129827,95502.69,498.49,500.31,0.61,0.09,0.83,20.65,39.08,-8.43,6.37,-36.35,571,1,0,0
129863,95501.71,498.58,500.30,0.68,0.08,0.78,15.34,45.85,-5.46,6.10,-40.93,571,1,0,0
129899,95503.03,498.46,500.29,0.65,0.07,0.74,22.24,48.16,-0.85,5.80,-41.22,571,1,0,0
129939,95508.08,498.02,500.29,0.50,0.17,0.80,14.54,51.03,-0.42,12.16,-31.78,571,1,0,0
129975,95499.65,498.51,500.28,0.52,0.19,0.83,2.67,56.37,-3.92,13.13,-31.44,571,1,0,0
130011,95505.64,498.23,500.27,0.54,0.12,0.84,-15.65,59.25,-4.53,7.78,-32.50,571,1,0,0
