Time,Pascal,alt,KMF,ax,ay,az,LaunchTime,ApoTime,LandTime
15404,89955,486.48,424.63,-292,16460,-1032,1,0,0
15436,89955,486.48,478.45,-284,16396,-972,1,0,0
15468,89955,486.48,483.01,-288,16488,-1084,1,0,0
15501,89955,486.48,484.35,-140,16612,-1092,1,0,0
15533,89955,486.48,484.97,-140,16528,-1132,1,0,0
15565,89955,486.48,485.32,-244,16516,-1220,1,0,0
15597,89955,486.48,485.54,-72,16652,-1180,1,0,0
15630,89954,486.58,485.71,-196,16432,-1172,1,0,0
15662,89954,486.58,485.83,-136,16572,-1204,1,0,0
15698,89955,486.48,485.91,-212,16540,-1232,1,0,0
15731,89955,486.48,485.98,-132,16504,-1140,1,0,0
15764,89955,486.48,486.03,-96,16516,-1128,1,0,0
15796,89955,486.48,486.07,-132,16508,-1200,1,0,0
15828,89955,486.48,486.11,-260,16492,-1092,1,0,0
15861,89955,486.48,486.14,-168,16468,-1168,1,0,0
15894,89955,486.48,486.16,-240,16488,-1164,1,0,0
15927,89955,486.48,486.19,-252,16440,-1064,1,0,0
15960,89955,486.48,486.21,-208,16568,-1108,1,0,0
15992,89956,486.39,486.22,-212,16560,-1116,1,0,0
16029,89956,486.39,486.23,-260,16516,-1176,1,0,0
16061,89956,486.39,486.24,-172,16528,-1124,1,0,0
16094,89956,486.39,486.25,-180,16600,-1112,1,0,0
16126,89956,486.39,486.25,-200,16616,-1220,1,0,0
16159,89957,486.3,486.26,-156,16496,-1276,1,0,0
16191,89957,486.3,486.26,-224,16568,-1140,1,0,0
16224,89957,486.3,486.26,-232,16428,-1096,1,0,0
16257,89957,486.3,486.26,-280,16528,-1176,1,0,0
16288,89957,486.3,486.26,-256,16540,-1264,1,0,0
16325,89957,486.3,486.26,-132,16476,-1232,1,0,0
16358,89958,486.2,486.26,-204,16416,-1048,1,0,0
16391,89958,486.2,486.26,-256,16488,-1240,1,0,0
16422,89958,486.2,486.26,-204,16516,-1184,1,0,0
16455,89958,486.2,486.26,-220,16448,-1168,1,0,0
16488,89958,486.2,486.25,-156,16528,-1132,1,0,0
16521,89958,486.2,486.25,-272,16496,-1248,1,0,0
16552,89958,486.2,486.25,-200,16540,-1136,1,0,0
16585,89957,486.3,486.25,-204,16472,-1208,1,0,0
16618,89957,486.3,486.25,-160,16464,-1048,1,0,0
16655,89958,486.2,486.25,-236,16488,-1172,1,0,0
16687,89958,486.2,486.25,-212,16416,-1180,1,0,0
16719,89958,486.2,486.25,-220,16544,-1204,1,0,0
16752,89957,486.3,486.25,-276,16548,-1168,1,0,0
16785,89956,486.39,486.26,-160,16492,-1004,1,0,0
16817,89956,486.39,486.26,-200,16512,-1100,1,0,0
16849,89956,486.39,486.26,-96,16444,-1044,1,0,0
16882,89956,486.39,486.27,-184,16412,-1196,1,0,0
16915,89956,486.39,486.27,-180,16520,-1192,1,0,0
16947,89955,486.48,486.27,-148,16448,-1092,1,0,0
16984,89955,486.48,486.28,-160,16460,-1224,1,0,0
17016,89956,486.39,486.28,-188,16524,-1224,1,0,0
17049,89956,486.39,486.28,-224,16436,-1076,1,0,0
17082,89957,486.3,486.28,-176,16392,-1208,1,0,0
17123,89957,486.3,486.28,-200,16528,-1260,1,0,0
17156,89957,486.3,486.28,-188,16472,-1172,1,0,0
17188,89957,486.3,486.28,-260,16432,-1116,1,0,0
17220,89957,486.3,486.28,-152,16456,-1096,1,0,0
17253,89958,486.2,486.28,-136,16560,-1112,1,0,0
17290,89958,486.2,486.28,-288,16468,-1228,1,0,0
17330,89958,486.2,486.28,-228,16508,-1184,1,0,0
17362,89958,486.2,486.28,-260,16516,-1172,1,0,0
17394,89959,486.11,486.28,-168,16472,-1168,1,0,0
17427,89959,486.11,486.27,-252,16440,-1208,1,0,0
17460,89960,486.02,486.27,-228,16424,-1144,1,0,0
17491,89960,486.02,486.26,-212,16632,-1016,1,0,0
17524,89960,486.02,486.26,-248,16504,-1128,1,0,0
17557,89960,486.02,486.26,-216,16524,-1052,1,0,0
17590,89960,486.02,486.25,-196,16424,-1196,1,0,0
17626,89960,486.02,486.25,-232,16480,-1092,1,0,0
17658,89961,485.93,486.24,-176,16580,-1168,1,0,0
17691,89961,485.93,486.24,-268,16504,-1200,1,0,0
17723,89961,485.93,486.23,-252,16464,-1248,1,0,0
17756,89962,485.83,486.23,-284,16512,-1144,1,0,0
17788,89962,485.83,486.22,-76,16448,-1232,1,0,0
17821,89963,485.74,486.21,-184,16500,-1080,1,0,0
17853,89963,485.74,486.21,-172,16516,-1100,1,0,0
17886,89963,485.74,486.2,-160,16488,-1140,1,0,0
17918,89963,485.74,486.19,-244,16496,-1192,1,0,0
17954,89963,485.74,486.19,-164,16532,-1128,1,0,0
17987,89963,485.74,486.18,-200,16608,-1212,1,0,0
18020,89963,485.74,486.17,-172,16588,-1184,1,0,0
18053,89962,485.83,486.17,-248,16420,-1120,1,0,0
18084,89962,485.83,486.16,-228,16516,-1072,1,0,0
18117,89962,485.83,486.16,-108,16524,-1232,1,0,0
18150,89963,485.74,486.15,-104,16424,-1232,1,0,0
18182,89963,485.74,486.15,-136,16496,-1148,1,0,0
18214,89963,485.74,486.14,-136,16476,-1056,1,0,0
18251,89963,485.74,486.13,-200,16432,-1264,1,0,0
18284,89964,485.74,486.13,-148,16484,-1020,1,0,0
18317,89964,485.65,486.12,-256,16520,-1232,1,0,0
18349,89963,485.74,486.12,-152,16372,-1220,1,0,0
18381,89964,485.65,486.11,-36,16516,-1272,1,0,0
18414,89963,485.74,486.11,-196,16508,-1036,1,0,0
18447,89963,485.74,486.1,-212,16564,-1028,1,0,0
18480,89964,485.65,486.09,-176,16440,-1180,1,0,0
18512,89963,485.74,486.09,-240,16504,-1172,1,0,0
18544,89964,485.65,486.08,-224,16512,-1088,1,0,0
18581,89964,485.65,486.08,-264,16576,-1200,1,0,0
18614,89965,485.56,486.07,-208,16404,-1216,1,0,0
18647,89965,485.56,486.06,-256,16456,-1212,1,0,0
18678,89965,485.56,486.06,-188,16508,-1224,1,0,0
18711,89965,485.56,486.05,-16,16520,-1280,1,0,0
18744,89965,485.56,486.04,-164,16476,-1124,1,0,0
18776,89965,485.56,486.04,-224,16524,-1268,1,0,0
18808,89965,485.56,486.03,-244,16472,-1208,1,0,0
18841,89965,485.56,486.02,-196,16440,-1092,1,0,0
18873,89965,485.56,486.02,-240,16468,-1172,1,0,0
18910,89965,485.56,486.01,-240,16480,-1096,1,0,0
18942,89965,485.56,486.01,-236,16436,-1064,1,0,0
18974,89965,485.56,486,-224,16412,-1220,1,0,0
19007,89965,485.56,486,-200,16528,-1352,1,0,0
19040,89964,485.65,485.99,-136,16576,-1052,1,0,0
19072,89964,485.65,485.99,-116,16476,-1124,1,0,0
19112,89964,485.65,485.98,-196,16424,-1136,1,0,0
19145,89965,485.65,485.98,-204,16444,-1088,1,0,0
19177,89965,485.56,485.97,-172,16528,-1236,1,0,0
19210,89965,485.56,485.97,-136,16536,-1132,1,0,0
19239,89966,485.47,485.96,-288,16480,-1108,1,0,0
19288,89965,485.56,485.96,-272,16460,-1164,1,0,0
19319,89965,485.56,485.95,-164,16504,-1068,1,0,0
19351,89966,485.47,485.95,-184,16548,-1184,1,0,0
19382,89965,485.56,485.94,-204,16476,-1052,1,0,0
19414,89965,485.56,485.94,-136,16460,-1152,1,0,0
19444,89965,485.56,485.93,-168,16496,-1188,1,0,0
19476,89965,485.56,485.93,-288,16440,-1328,1,0,0
19507,89965,485.56,485.92,-212,16516,-1204,1,0,0
19543,89966,485.47,485.92,-148,16520,-1100,1,0,0
19573,89966,485.47,485.91,-272,16540,-1064,1,0,0
19605,89966,485.47,485.91,-104,16372,-1176,1,0,0
19636,89966,485.47,485.9,-196,16468,-1208,1,0,0
19667,89966,485.47,485.9,-224,16544,-1092,1,0,0
19698,89965,485.56,485.89,-212,16564,-1076,1,0,0
19730,89965,485.56,485.89,-176,16484,-1180,1,0,0
19762,89965,485.56,485.88,-156,16564,-1236,1,0,0
19792,89965,485.56,485.88,-136,16468,-1076,1,0,0
19824,89965,485.56,485.88,-204,16528,-1232,1,0,0
19859,89966,485.47,485.87,-192,16460,-1184,1,0,0
19890,89966,485.47,485.87,-220,16424,-1108,1,0,0
19921,89966,485.47,485.86,-192,16448,-1176,1,0,0
19953,89966,485.47,485.86,-188,16460,-1048,1,0,0
19984,89966,485.47,485.85,-228,16488,-1140,1,0,0
20016,89965,485.56,485.85,-220,16488,-1016,1,0,0
20046,89965,485.56,485.85,-224,16424,-1052,1,0,0
20078,89965,485.56,485.84,-84,16508,-1156,1,0,0
20109,89965,485.56,485.84,-244,16576,-1108,1,0,0
20141,89966,485.47,485.84,-232,16504,-1108,1,0,0
20169,89966,485.47,485.83,-92,16460,-1136,1,0,0
20200,89966,485.47,485.83,-116,16492,-1140,1,0,0
20232,89965,485.56,485.83,-112,16512,-1212,1,0,0
20262,89965,485.56,485.82,-216,16532,-1252,1,0,0
20294,89965,485.56,485.82,-204,16556,-1288,1,0,0
20326,89965,485.56,485.82,-204,16488,-1120,1,0,0
20357,89965,485.56,485.81,-276,16460,-956,1,0,0
20388,89964,485.65,485.81,-248,16520,-1172,1,0,0
20419,89964,485.65,485.81,-256,16520,-1116,1,0,0
20454,89965,485.56,485.81,-200,16480,-1076,1,0,0
20486,89965,485.56,485.81,-264,16488,-1116,1,0,0
20516,89966,485.47,485.8,-216,16440,-1064,1,0,0
20548,89965,485.56,485.8,-216,16500,-1188,1,0,0
20580,89965,485.56,485.8,-236,16492,-1224,1,0,0
20611,89965,485.56,485.79,-84,16560,-1184,1,0,0
20642,89966,485.47,485.79,-312,16460,-1028,1,0,0
20673,89966,485.47,485.79,-172,16432,-1096,1,0,0
20705,89966,485.47,485.79,-144,16552,-1124,1,0,0
20736,89965,485.56,485.78,-248,16528,-1256,1,0,0
20770,89966,485.47,485.78,-136,16544,-1152,1,0,0
20802,89966,485.47,485.78,-212,16536,-1188,1,0,0
20833,89966,485.47,485.77,-176,16544,-1172,1,0,0
20865,89966,485.47,485.77,-156,16504,-1140,1,0,0
20895,89967,485.37,485.77,-188,16420,-1228,1,0,0
20927,89967,485.37,485.76,-216,16548,-1184,1,0,0
20958,89967,485.37,485.76,-272,16452,-1196,1,0,0
20989,89967,485.37,485.75,-208,16536,-1080,1,0,0
21020,89968,485.28,485.75,-184,16416,-1188,1,0,0
21061,89968,485.28,485.75,-240,16428,-1196,1,0,0
21096,89968,485.28,485.74,-208,16552,-1128,1,0,0
21127,89968,485.28,485.74,-192,16504,-1148,1,0,0
21168,89968,485.28,485.73,-216,16432,-1140,1,0,0
21198,89968,485.28,485.73,-180,16488,-1208,1,0,0
21230,89968,485.28,485.72,-376,16528,-1196,1,0,0
21261,89968,485.28,485.72,-228,16448,-1260,1,0,0
21293,89968,485.28,485.71,-180,16468,-1284,1,0,0
21323,89968,485.28,485.71,-200,16400,-1216,1,0,0
21355,89967,485.37,485.71,-128,16508,-1064,1,0,0
21390,89967,485.37,485.7,-276,16500,-1052,1,0,0
21422,89968,485.28,485.7,-160,16528,-1100,1,0,0
21452,89968,485.28,485.7,-164,16488,-1248,1,0,0
21484,89968,485.28,485.69,-264,16420,-1172,1,0,0
21515,89968,485.28,485.69,-364,16460,-1148,1,0,0
21547,89968,485.28,485.68,-232,16508,-1180,1,0,0
21577,89968,485.28,485.68,-200,16412,-1184,1,0,0
21609,89968,485.28,485.68,-136,16528,-1104,1,0,0
21640,89967,485.37,485.67,-136,16468,-1124,1,0,0
21671,89968,485.28,485.67,-156,16484,-1136,1,0,0
21706,89968,485.28,485.67,-192,16484,-1148,1,0,0
21738,89968,485.28,485.66,-292,16504,-1040,1,0,0
21769,89968,485.28,485.66,-200,16500,-1140,1,0,0
21800,89968,485.28,485.65,-172,16500,-1072,1,0,0
21831,89968,485.28,485.65,-268,16392,-1020,1,0,0
21863,89968,485.28,485.65,-156,16536,-1092,1,0,0
21894,89968,485.28,485.64,-172,16440,-1184,1,0,0
21925,89968,485.28,485.64,-208,16460,-1184,1,0,0
21956,89968,485.28,485.64,-132,16548,-1076,1,0,0
21988,89968,485.28,485.63,-132,16444,-1108,1,0,0
22023,89967,485.37,485.63,-200,16496,-1256,1,0,0
22053,89967,485.37,485.63,-240,16532,-1156,1,0,0
22085,89967,485.37,485.63,-172,16564,-1124,1,0,0
22116,89967,485.37,485.62,-192,16480,-1148,1,0,0
22148,89967,485.37,485.62,-172,16660,-1104,1,0,0
22178,89967,485.37,485.62,-272,16452,-1256,1,0,0
22210,89967,485.37,485.62,-128,16472,-1208,1,0,0
22241,89967,485.37,485.62,-104,16560,-1280,1,0,0
22273,89967,485.37,485.61,-200,16468,-1268,1,0,0
22307,89967,485.37,485.61,-168,16524,-1112,1,0,0
22339,89968,485.37,485.61,-276,16476,-1200,1,0,0
22370,89968,485.28,485.61,-148,16596,-1200,1,0,0
22402,89968,485.28,485.6,-272,16544,-1064,1,0,0
22432,89968,485.28,485.6,-252,16468,-1116,1,0,0
22464,89968,485.28,485.6,-332,16508,-1124,1,0,0
22495,89968,485.28,485.59,-224,16480,-1168,1,0,0
22526,89968,485.28,485.59,-184,16492,-1036,1,0,0
22557,89968,485.28,485.59,-56,16504,-1152,1,0,0
22588,89968,485.28,485.59,-204,16496,-1104,1,0,0
22624,89968,485.28,485.58,-192,16540,-1216,1,0,0
22654,89968,485.28,485.58,-244,16532,-1204,1,0,0
22686,89969,485.18,485.58,-284,16448,-1196,1,0,0
22717,89969,485.18,485.57,-104,16404,-1116,1,0,0
22749,89969,485.18,485.57,-208,16504,-1128,1,0,0
22779,89969,485.18,485.57,-216,16500,-1160,1,0,0
22811,89969,485.18,485.56,-60,16484,-1044,1,0,0
22851,89969,485.18,485.56,-268,16488,-1192,1,0,0
22882,89969,485.18,485.56,-200,16444,-1264,1,0,0
22914,89969,485.18,485.55,-72,16436,-1176,1,0,0
22948,89970,485.18,485.55,-192,16512,-1256,1,0,0
22988,89970,485.09,485.55,-136,16544,-1132,1,0,0
23020,89970,485.09,485.54,-136,16460,-1148,1,0,0
23051,89970,485.09,485.54,-120,16488,-1228,1,0,0
23083,89971,485,485.53,-40,16408,-1032,1,0,0
23113,89971,485,485.53,-212,16512,-1212,1,0,0
23145,89971,485,485.53,-252,16548,-1192,1,0,0
23176,89970,485.09,485.52,-108,16512,-1200,1,0,0
23207,89970,485.09,485.52,-188,16556,-1268,1,0,0
23242,89970,485.09,485.51,-200,16460,-1124,1,0,0
23273,89971,485,485.51,-252,16540,-1136,1,0,0
23305,89971,485,485.51,-224,16556,-1224,1,0,0
23335,89971,485,485.5,-176,16560,-1196,1,0,0
23366,89971,485,485.5,-172,16464,-1120,1,0,0
23398,89971,485,485.49,-116,16432,-1156,1,0,0
23429,89971,485,485.49,-216,16572,-1228,1,0,0
23460,89971,485,485.48,-208,16448,-1272,1,0,0
23491,89971,485,485.48,-184,16484,-1164,1,0,0
23523,89971,485,485.48,-284,16484,-1080,1,0,0
23558,89971,485,485.47,-144,16432,-1228,1,0,0
23588,89971,485,485.47,-312,16488,-1212,1,0,0
23620,89971,485,485.46,-116,16516,-1064,1,0,0
23651,89970,485.09,485.46,-196,16488,-1180,1,0,0
23683,89970,485.09,485.46,-220,16520,-1272,1,0,0
23713,89970,485.09,485.45,-112,16492,-1232,1,0,0
23745,89969,485.18,485.45,-236,16576,-1092,1,0,0
23776,89969,485.18,485.45,-128,16416,-1104,1,0,0
23808,89969,485.18,485.45,-168,16540,-1240,1,0,0
23838,89969,485.18,485.44,-116,16424,-1104,1,0,0
23873,89969,485.18,485.44,-120,16436,-1116,1,0,0
23905,89970,485.09,485.44,-184,16440,-1132,1,0,0
23936,89970,485.09,485.44,-184,16620,-1216,1,0,0
23966,89970,485.09,485.43,-180,16348,-1092,1,0,0
23998,89970,485.09,485.43,-236,16464,-1136,1,0,0
24029,89971,485,485.43,-224,16428,-1160,1,0,0
24060,89971,485,485.42,-184,16500,-1200,1,0,0
24091,89971,485,485.42,-216,16488,-1180,1,0,0
24123,89971,485,485.42,-224,16500,-1124,1,0,0
24158,89972,484.91,485.41,-220,16496,-1092,1,0,0
24188,89972,484.91,485.41,-324,16468,-1160,1,0,0
24220,89973,484.81,485.4,-332,16480,-1088,1,0,0
24251,89973,484.81,485.4,-288,16452,-1120,1,0,0
24283,89973,484.81,485.39,-264,16604,-1076,1,0,0
24313,89974,484.72,485.39,-200,16568,-1208,1,0,0
24344,89974,484.72,485.38,-148,16544,-1148,1,0,0
24376,89974,484.72,485.38,-188,16532,-1224,1,0,0
24407,89974,484.72,485.37,-140,16476,-1188,1,0,0
24438,89974,484.72,485.36,-148,16576,-1288,1,0,0
24473,89974,484.72,485.36,-232,16516,-1160,1,0,0
24504,89974,484.72,485.35,-216,16472,-1304,1,0,0
24536,89975,484.63,485.35,-204,16436,-1080,1,0,0
24566,89974,484.72,485.34,-212,16488,-1144,1,0,0
24597,89974,484.72,485.34,-204,16460,-1204,1,0,0
24629,89974,484.72,485.33,-136,16500,-1176,1,0,0
24669,89974,484.72,485.32,-252,16468,-1136,1,0,0
24700,89974,484.72,485.32,-240,16584,-1028,1,0,0
24731,89974,484.72,485.31,-176,16500,-1140,1,0,0
24762,89974,484.72,485.31,-224,16500,-1148,1,0,0
24798,89975,484.63,485.3,-192,16560,-1116,1,0,0
24838,89974,484.72,485.3,-220,16404,-1192,1,0,0
24868,89974,484.72,485.29,-176,16568,-1192,1,0,0
24900,89975,484.63,485.29,-252,16476,-936,1,0,0
24931,89975,484.63,485.28,-224,16448,-1188,1,0,0
24962,89976,484.54,485.27,-244,16484,-1128,1,0,0
24993,89976,484.54,485.27,-124,16456,-1208,1,0,0
25024,89976,484.54,485.26,-216,16508,-1032,1,0,0
25056,89976,484.54,485.25,-232,16580,-1144,1,0,0
25091,89977,484.45,485.24,-216,16492,-1156,1,0,0
25121,89977,484.45,485.24,-212,16500,-1200,1,0,0
25152,89976,484.54,485.23,-116,16512,-1156,1,0,0
25183,89977,484.45,485.22,-132,16568,-1164,1,0,0
25214,89977,484.45,485.22,-160,16640,-1264,1,0,0
25245,89977,484.45,485.21,-260,16484,-1140,1,0,0
25276,89977,484.45,485.2,-192,16560,-1156,1,0,0
25307,89977,484.45,485.19,-216,16508,-1064,1,0,0
25338,89977,484.45,485.19,-88,16464,-1116,1,0,0
25369,89977,484.45,485.18,-136,16456,-1084,1,0,0
25404,89978,484.35,485.17,-228,16528,-1212,1,0,0
25435,89978,484.35,485.16,-256,16396,-1152,1,0,0
25465,89977,484.45,485.15,-312,16468,-1084,1,0,0
25496,89978,484.45,485.15,-168,16484,-1124,1,0,0
25528,89978,484.35,485.14,-172,16484,-1124,1,0,0
25559,89978,484.35,485.13,-208,16524,-1140,1,0,0
25589,89978,484.35,485.12,-112,16508,-1156,1,0,0
25620,89978,484.35,485.11,-120,16540,-1224,1,0,0
25652,89979,484.26,485.11,-256,16416,-1192,1,0,0
25682,89978,484.35,485.1,-156,16460,-1120,1,0,0
25717,89979,484.26,485.09,-276,16488,-1156,1,0,0
25749,89979,484.26,485.08,-212,16456,-1084,1,0,0
25780,89979,484.26,485.07,-248,16372,-1220,1,0,0
25811,89978,484.35,485.06,-200,16544,-1072,1,0,0
25842,89978,484.35,485.06,-216,16548,-1164,1,0,0
25874,89978,484.35,485.05,-168,16532,-1204,1,0,0
25906,89977,484.45,485.04,-280,16528,-1264,1,0,0
25936,89978,484.35,485.03,-168,16524,-1248,1,0,0
25968,89978,484.35,485.03,-80,16564,-1084,1,0,0
26003,89978,484.35,485.02,-200,16432,-1260,1,0,0
26035,89979,484.35,485.01,-264,16532,-1216,1,0,0
26066,89979,484.26,485,-240,16448,-1052,1,0,0
26097,89979,484.26,485,-140,16476,-1192,1,0,0
26129,89979,484.26,484.99,-148,16456,-1220,1,0,0
26161,89979,484.26,484.98,-180,16520,-1208,1,0,0
26191,89980,484.16,484.97,-212,16428,-1192,1,0,0
26223,89979,484.26,484.96,-148,16496,-1184,1,0,0
26255,89979,484.26,484.96,-136,16480,-1036,1,0,0
26286,89979,484.26,484.95,-332,16560,-1260,1,0,0
26321,89979,484.26,484.94,-256,16504,-1128,1,0,0
26352,89979,484.26,484.93,-196,16536,-1192,1,0,0
26384,89979,484.26,484.92,-196,16532,-1152,1,0,0
26415,89979,484.26,484.92,-160,16464,-1140,1,0,0
26456,89979,484.26,484.91,-256,16536,-1196,1,0,0
26487,89979,484.26,484.9,-160,16500,-1152,1,0,0
26518,89980,484.16,484.89,-144,16476,-1176,1,0,0
26550,89980,484.16,484.89,-180,16452,-1236,1,0,0
26582,89980,484.16,484.88,-144,16476,-1176,1,0,0
26612,89979,484.26,484.87,-168,16528,-1248,1,0,0
26657,89979,484.26,484.86,-224,16536,-1188,1,0,0
26689,89979,484.26,484.86,-92,16516,-1192,1,0,0
26720,89979,484.26,484.85,-184,16376,-1164,1,0,0
26752,89979,484.26,484.84,-312,16408,-1108,1,0,0
26782,89979,484.26,484.84,-284,16480,-1084,1,0,0
26814,89980,484.16,484.83,-100,16436,-1148,1,0,0
26846,89980,484.16,484.82,-112,16508,-1100,1,0,0
26876,89980,484.16,484.81,-228,16480,-1112,1,0,0
26908,89980,484.16,484.81,-184,16580,-1312,1,0,0
26943,89979,484.26,484.8,-264,16564,-1208,1,0,0
26975,89979,484.26,484.79,-160,16520,-1372,1,0,0
27006,89979,484.26,484.79,-196,16500,-1248,1,0,0
27037,89979,484.26,484.78,-232,16508,-1128,1,0,0
27069,89980,484.16,484.77,-200,16464,-1216,1,0,0
27100,89980,484.16,484.77,-208,16444,-1208,1,0,0
27131,89980,484.16,484.76,-244,16428,-1136,1,0,0
27163,89980,484.16,484.75,-228,16456,-1136,1,0,0
27194,89979,484.26,484.75,-164,16576,-1128,1,0,0
27226,89979,484.26,484.74,-160,16476,-1200,1,0,0
27260,89979,484.26,484.74,-288,16480,-1168,1,0,0
27292,89979,484.26,484.73,-324,16448,-1272,1,0,0
27324,89979,484.26,484.72,-236,16500,-1168,1,0,0
27355,89979,484.26,484.72,-240,16452,-1080,1,0,0
27386,89979,484.26,484.71,-240,16432,-1056,1,0,0
27417,89979,484.26,484.71,-128,16572,-1100,1,0,0
27449,89979,484.26,484.7,-192,16460,-1256,1,0,0
27481,89980,484.16,484.7,-176,16516,-1084,1,0,0
27511,89979,484.26,484.69,-32,16500,-1036,1,0,0
27543,89980,484.16,484.69,-132,16608,-1192,1,0,0
27578,89980,484.16,484.68,-240,16432,-1276,1,0,0
27610,89980,484.16,484.68,-192,16504,-1092,1,0,0
27640,89980,484.16,484.67,-200,16440,-1152,1,0,0
27672,89980,484.16,484.66,-184,16508,-1248,1,0,0
27704,89981,484.07,484.66,-160,16540,-1028,1,0,0
27735,89981,484.07,484.65,-136,16440,-1268,1,0,0
27766,89981,484.07,484.64,-148,16508,-1164,1,0,0
27797,89980,484.16,484.64,-164,16396,-1124,1,0,0
27829,89980,484.16,484.63,-284,16568,-1164,1,0,0
27864,89980,484.16,484.63,-232,16476,-1184,1,0,0
27895,89980,484.16,484.62,-140,16480,-1188,1,0,0
27927,89980,484.16,484.62,-272,16468,-1100,1,0,0
27958,89980,484.16,484.61,-156,16584,-1124,1,0,0
27990,89980,484.16,484.61,-184,16576,-1032,1,0,0
28020,89980,484.16,484.6,-164,16580,-1104,1,0,0
28052,89980,484.16,484.6,-220,16480,-1152,1,0,0
28084,89980,484.16,484.59,-72,16456,-1260,1,0,0
28114,89980,484.16,484.59,-272,16552,-1116,1,0,0
28146,89980,484.16,484.58,-200,16520,-1132,1,0,0
28181,89980,484.16,484.58,-196,16480,-1152,1,0,0
28213,89980,484.16,484.58,-156,16424,-1232,1,0,0
28243,89981,484.07,484.57,-144,16516,-1076,1,0,0
28284,89981,484.07,484.56,-224,16568,-1004,1,0,0
28315,89981,484.07,484.56,-228,16476,-1184,1,0,0
28347,89981,484.07,484.55,-228,16564,-1008,1,0,0
28379,89982,483.98,484.55,-168,16520,-1000,1,0,0
28409,89982,483.98,484.54,-200,16428,-1136,1,0,0
28441,89982,483.98,484.54,-196,16564,-1060,1,0,0
28472,89982,483.98,484.53,-124,16480,-1164,1,0,0
28517,89982,483.98,484.52,-172,16568,-1164,1,0,0
28549,89982,483.98,484.52,-264,16476,-1056,1,0,0
28579,89982,483.98,484.51,-284,16484,-1080,1,0,0
28611,89981,484.07,484.51,-208,16484,-1292,1,0,0
28642,89981,484.07,484.5,-236,16476,-1164,1,0,0
28674,89981,484.07,484.5,-196,16408,-1104,1,0,0
28705,89981,484.07,484.49,-244,16496,-1140,1,0,0
28736,89981,484.07,484.49,-200,16544,-1100,1,0,0
28768,89981,484.07,484.48,-120,16500,-1224,1,0,0
28803,89981,484.07,484.48,-304,16456,-1208,1,0,0
28834,89981,484.07,484.48,-208,16336,-1148,1,0,0
28865,89981,484.07,484.47,-248,16556,-1276,1,0,0
28897,89981,484.07,484.47,-188,16512,-1220,1,0,0
28928,89981,484.07,484.46,-364,16452,-1272,1,0,0
28959,89981,484.07,484.46,-196,16460,-1228,1,0,0
28990,89981,484.07,484.45,-240,16500,-1092,1,0,0
29022,89981,484.07,484.45,-116,16500,-1128,1,0,0
29053,89981,484.07,484.45,-152,16476,-1192,1,0,0
29084,89981,484.07,484.44,-104,16508,-1188,1,0,0
29119,89981,484.07,484.44,-348,16520,-1088,1,0,0
29151,89981,484.07,484.43,-344,16500,-1176,1,0,0
29181,89982,483.98,484.43,-264,16496,-1148,1,0,0
29213,89982,483.98,484.43,-252,16432,-1044,1,0,0
29245,89983,483.89,484.42,-244,16476,-1084,1,0,0
29276,89983,483.89,484.41,-356,16376,-1060,1,0,0
29307,89983,483.89,484.41,-168,16528,-1068,1,0,0
29338,89983,483.89,484.4,-144,16536,-1196,1,0,0
29370,89983,483.89,484.4,-200,16444,-1168,1,0,0
29401,89983,483.89,484.39,-196,16532,-1132,1,0,0
29436,89983,483.89,484.39,-308,16500,-1108,1,0,0
29467,89983,483.89,484.38,-224,16528,-1092,1,0,0
29499,89983,483.89,484.38,-208,16440,-1156,1,0,0
29530,89983,483.89,484.37,-204,16464,-1280,1,0,0
29561,89983,483.89,484.37,-168,16556,-1156,1,0,0
29592,89983,483.89,484.36,-204,16536,-1048,1,0,0
29624,89983,483.89,484.36,-76,16508,-1068,1,0,0
29655,89983,483.89,484.35,-120,16556,-1200,1,0,0
29686,89983,483.89,484.35,-208,16516,-1064,1,0,0
29721,89983,483.89,484.34,-116,16580,-1308,1,0,0
29753,89983,483.89,484.34,-256,16404,-1052,1,0,0
29784,89983,483.89,484.33,-196,16468,-1108,1,0,0
29815,89983,483.89,484.33,-216,16460,-1080,1,0,0
29846,89983,483.89,484.33,-96,16548,-1176,1,0,0
29878,89983,483.89,484.32,-168,16584,-1184,1,0,0
29908,89983,483.89,484.32,-144,16428,-1200,1,0,0
29940,89983,483.89,484.31,-216,16516,-1128,1,0,0
29972,89983,483.89,484.31,-280,16380,-1108,1,0,0
30003,89983,483.89,484.3,-196,16488,-1116,1,0,0
30038,89983,483.89,484.3,-188,16512,-1048,1,0,0
30078,89983,483.89,484.29,-200,16444,-1224,1,0,0
30109,89983,483.89,484.29,-176,16572,-1224,1,0,0
30141,89984,483.8,484.29,-164,16448,-1176,1,0,0
30172,89983,483.89,484.28,-212,16428,-1184,1,0,0
30203,89983,483.89,484.28,-264,16492,-1184,1,0,0
30235,89983,483.89,484.27,-204,16440,-1108,1,0,0
30266,89983,483.89,484.27,-68,16500,-1100,1,0,0
30298,89983,483.89,484.27,-188,16536,-1140,1,0,0
30339,89983,483.89,484.26,-192,16440,-1148,1,0,0
30373,89983,483.89,484.26,-204,16540,-1108,1,0,0
30404,89984,483.8,484.25,-180,16440,-1108,1,0,0
30436,89983,483.89,484.25,-124,16472,-1196,1,0,0
30468,89983,483.89,484.25,-228,16472,-1244,1,0,0
30498,89984,483.8,484.24,-168,16544,-1080,1,0,0
30530,89983,483.89,484.24,-140,16460,-1172,1,0,0
30561,89984,483.8,484.23,-360,16524,-1132,1,0,0
30593,89984,483.8,484.23,-304,16572,-1124,1,0,0
30623,89984,483.8,484.23,-192,16464,-1236,1,0,0
30658,89984,483.8,484.22,-148,16432,-980,1,0,0
30690,89984,483.8,484.22,-160,16544,-1116,1,0,0
30721,89984,483.8,484.21,-224,16452,-1236,1,0,0
30752,89984,483.8,484.21,-160,16476,-1076,1,0,0
30783,89984,483.8,484.21,-200,16484,-1176,1,0,0
30815,89984,483.8,484.2,-208,16536,-1184,1,0,0
30846,89984,483.8,484.2,-164,16516,-1260,1,0,0
30877,89984,483.8,484.19,-212,16432,-1168,1,0,0
30909,89984,483.8,484.19,-232,16572,-1152,1,0,0
30940,89984,483.8,484.19,-200,16464,-1308,1,0,0
30974,89984,483.8,484.18,-196,16496,-1180,1,0,0
31006,89984,483.8,484.18,-284,16488,-1184,1,0,0
31037,89984,483.8,484.18,-360,16472,-1108,1,0,0
31069,89984,483.8,484.17,-172,16504,-1148,1,0,0
31099,89985,483.7,484.17,-220,16468,-1280,1,0,0
31131,89986,483.7,484.16,-188,16468,-1088,1,0,0
31162,89986,483.61,484.16,-244,16508,-1216,1,0,0
31194,89986,483.61,484.15,-184,16508,-1176,1,0,0
31224,89985,483.7,484.15,-168,16484,-1080,1,0,0
31256,89985,483.7,484.14,-164,16492,-1276,1,0,0
31291,89985,483.7,484.14,-204,16488,-1152,1,0,0
31323,89984,483.8,484.14,-256,16388,-1072,1,0,0
31353,89984,483.8,484.13,-168,16464,-1188,1,0,0
31385,89985,483.7,484.13,-264,16472,-1184,1,0,0
31416,89985,483.7,484.12,-216,16492,-1144,1,0,0
31448,89985,483.7,484.12,-196,16556,-1212,1,0,0
31478,89985,483.7,484.12,-220,16572,-1224,1,0,0
31510,89985,483.7,484.11,-240,16500,-1224,1,0,0
31541,89985,483.7,484.11,-96,16476,-1040,1,0,0
31576,89985,483.7,484.11,-256,16436,-1140,1,0,0
31607,89985,483.7,484.1,-184,16460,-1132,1,0,0
31638,89985,483.7,484.1,-136,16408,-1136,1,0,0
31670,89985,483.7,484.09,-76,16456,-1024,1,0,0
31700,89985,483.7,484.09,-168,16584,-1248,1,0,0
31732,89984,483.8,484.09,-176,16588,-1088,1,0,0
31763,89985,483.7,484.08,-200,16476,-1160,1,0,0
31795,89984,483.8,484.08,-184,16508,-1056,1,0,0
31825,89984,483.8,484.08,-104,16444,-1052,1,0,0
31857,89984,483.8,484.08,-192,16500,-1092,1,0,0
31901,89984,483.8,484.07,-124,16544,-1124,1,0,0
31932,89984,483.8,484.07,-252,16464,-1144,1,0,0
31964,89984,483.8,484.07,-144,16448,-1236,1,0,0
31994,89984,483.8,484.07,-212,16500,-1168,1,0,0
32026,89984,483.8,484.06,-244,16600,-1020,1,0,0
32057,89985,483.7,484.06,-224,16416,-1160,1,0,0
32089,89985,483.7,484.06,-332,16476,-1104,1,0,0
32119,89985,483.7,484.05,-176,16500,-1068,1,0,0
32160,89985,483.7,484.05,-208,16468,-960,1,0,0
32192,89985,483.7,484.05,-224,16476,-1192,1,0,0
32227,89985,483.7,484.04,-244,16380,-1148,1,0,0
32258,89985,483.7,484.04,-216,16500,-1216,1,0,0
32289,89985,483.7,484.04,-124,16464,-1240,1,0,0
32320,89984,483.8,484.04,-184,16528,-1212,1,0,0
32352,89985,483.8,484.03,-224,16464,-1072,1,0,0
32382,89985,483.7,484.03,-216,16540,-1208,1,0,0
32414,89984,483.8,484.03,-248,16424,-1232,1,0,0
32445,89984,483.8,484.03,-244,16548,-1192,1,0,0
32477,89985,483.7,484.02,-184,16468,-1224,1,0,0
32512,89985,483.7,484.02,-160,16508,-1108,1,0,0
32542,89986,483.61,484.02,-172,16536,-1108,1,0,0
32574,89986,483.61,484.01,-168,16532,-1148,1,0,0
32605,89986,483.61,484.01,-108,16476,-1216,1,0,0
32636,89986,483.61,484.01,-160,16488,-1208,1,0,0
32667,89986,483.61,484,-164,16500,-1156,1,0,0
32699,89985,483.7,484,-248,16448,-1136,1,0,0
32730,89986,483.61,484,-364,16436,-1068,1,0,0
32761,89986,483.61,483.99,-152,16432,-1176,1,0,0
32792,89986,483.61,483.99,-256,16392,-1176,1,0,0
32827,89986,483.61,483.99,-136,16500,-1124,1,0,0
32859,89987,483.52,483.98,-152,16460,-1148,1,0,0
32889,89988,483.52,483.98,-152,16460,-1220,1,0,0
32921,89988,483.43,483.98,-180,16484,-1092,1,0,0
32952,89987,483.52,483.97,-160,16508,-1096,1,0,0
32984,89987,483.52,483.97,-156,16544,-1148,1,0,0
33014,89987,483.52,483.96,-72,16468,-1164,1,0,0
33046,89987,483.52,483.96,-240,16432,-1120,1,0,0
33077,89988,483.43,483.95,-236,16436,-1344,1,0,0
33107,89987,483.52,483.95,-176,16400,-1188,1,0,0
33143,89987,483.52,483.95,-204,16564,-1080,1,0,0
33174,89987,483.52,483.94,-184,16528,-1152,1,0,0
33206,89987,483.52,483.94,-128,16444,-1216,1,0,0
33236,89988,483.43,483.94,-196,16372,-1216,1,0,0
33267,89987,483.52,483.93,-192,16472,-988,1,0,0
33299,89987,483.52,483.93,-204,16488,-1200,1,0,0
33330,89987,483.52,483.92,-224,16500,-1216,1,0,0
33361,89987,483.52,483.92,-192,16428,-1156,1,0,0
33392,89988,483.52,483.92,-136,16392,-1108,1,0,0
33427,89988,483.43,483.91,-88,16576,-1112,1,0,0
33459,89988,483.43,483.91,-156,16448,-1188,1,0,0
33489,89988,483.43,483.9,-228,16392,-1084,1,0,0
33521,89989,483.33,483.9,-248,16568,-1108,1,0,0
33552,89989,483.33,483.89,-224,16544,-1140,1,0,0
33584,89990,483.24,483.89,-168,16500,-1084,1,0,0
33614,89990,483.24,483.88,-336,16432,-1124,1,0,0
33645,89990,483.24,483.88,-232,16412,-1212,1,0,0
33677,89990,483.24,483.87,-264,16500,-1120,1,0,0
33717,89989,483.33,483.87,-208,16512,-1296,1,0,0
33752,89989,483.33,483.86,-232,16476,-1300,1,0,0
33783,89989,483.33,483.86,-152,16572,-1024,1,0,0
33814,89990,483.24,483.85,-280,16420,-1096,1,0,0
33846,89990,483.24,483.85,-248,16496,-1108,1,0,0
33876,89991,483.15,483.84,-112,16536,-1028,1,0,0
33908,89991,483.15,483.83,-236,16516,-1164,1,0,0
33939,89992,483.05,483.83,-128,16564,-1132,1,0,0
33980,89992,483.05,483.82,-148,16448,-1076,1,0,0
34012,89993,482.96,483.81,-116,16476,-1136,1,0,0
34042,89993,482.96,483.8,-220,16504,-1148,1,0,0
34077,89993,482.96,483.8,-332,16452,-1052,1,0,0
34109,89993,482.96,483.79,-196,16460,-1172,1,0,0
34140,89993,482.96,483.78,-316,16436,-1188,1,0,0
34170,89992,483.05,483.77,-208,16544,-1168,1,0,0
34202,89992,483.05,483.77,-160,16496,-1148,1,0,0
34233,89993,482.96,483.76,-180,16524,-1076,1,0,0
34265,89992,483.05,483.75,-216,16544,-1236,1,0,0
34295,89992,483.05,483.75,-164,16632,-1228,1,0,0
34327,89993,482.96,483.74,-192,16556,-1184,1,0,0
34362,89993,482.96,483.73,-296,16456,-1156,1,0,0
34393,89993,482.96,483.72,-244,16556,-1020,1,0,0
34424,89993,482.96,483.72,-152,16500,-1220,1,0,0
34455,89993,482.96,483.71,-120,16412,-1272,1,0,0
34486,89993,482.96,483.7,-48,16560,-1152,1,0,0
34518,89993,482.96,483.69,-208,16576,-1128,1,0,0
34548,89993,482.96,483.69,-160,16496,-1164,1,0,0
34580,89993,482.96,483.68,-288,16548,-1136,1,0,0
34611,89993,482.96,483.67,-260,16496,-1204,1,0,0
34641,89994,482.87,483.66,-264,16480,-1168,1,0,0
34677,89994,482.87,483.65,-88,16508,-1132,1,0,0
34708,89994,482.87,483.65,-160,16404,-1288,1,0,0
34739,89994,482.87,483.64,-236,16508,-1172,1,0,0
34770,89995,482.78,483.63,-256,16492,-1152,1,0,0
34801,89995,482.78,483.62,-208,16468,-1148,1,0,0
34833,89995,482.78,483.61,-172,16552,-1296,1,0,0
34864,89994,482.78,483.6,-256,16564,-1160,1,0,0
34895,89994,482.87,483.59,-236,16428,-1064,1,0,0
34926,89995,482.78,483.59,-168,16480,-1108,1,0,0
34957,89995,482.78,483.58,-324,16556,-1172,1,0,0
34992,89995,482.78,483.57,-264,16492,-1124,1,0,0
35022,89996,482.68,483.56,-148,16516,-1156,1,0,0
35054,89995,482.78,483.55,-220,16556,-1200,1,0,0
35085,89996,482.68,483.54,-216,16484,-1168,1,0,0
35116,89995,482.78,483.53,-200,16492,-1076,1,0,0
35146,89995,482.78,483.52,-168,16460,-1196,1,0,0
35178,89995,482.78,483.51,-188,16524,-1156,1,0,0
35209,89995,482.78,483.51,-56,16564,-1184,1,0,0
35239,89996,482.68,483.5,-124,16608,-1136,1,0,0
35429,89995,482.78,483.49,-152,16520,-1084,1,0,0
35463,89995,482.78,483.48,-104,16516,-1264,1,0,0
35495,89995,482.78,483.47,-232,16412,-964,1,0,0
35529,89995,482.78,483.46,-268,16452,-1164,1,0,0
35563,89995,482.78,483.46,-248,16508,-1216,1,0,0
35596,89995,482.78,483.45,-184,16452,-1192,1,0,0
35638,89995,482.78,483.44,-216,16596,-1036,1,0,0
35672,89995,482.78,483.43,-204,16536,-1232,1,0,0
35705,89995,482.78,483.43,-124,16480,-1156,1,0,0
35738,89995,482.78,483.42,-312,16484,-1112,1,0,0
35776,89994,482.87,483.41,-228,16536,-1200,1,0,0
35810,89994,482.87,483.41,-224,16544,-1252,1,0,0
35844,89994,482.87,483.4,-208,16464,-1156,1,0,0
35876,89994,482.87,483.39,-144,16536,-1068,1,0,0
35910,89994,482.87,483.39,-116,16604,-1036,1,0,0
35944,89994,482.87,483.38,-280,16508,-1184,1,0,0
35988,89994,482.87,483.37,-92,16440,-1068,1,0,0
36022,89994,482.87,483.37,-204,16368,-1156,1,0,0
36056,89994,482.87,483.36,-232,16488,-1164,1,0,0
36089,89995,482.78,483.36,-168,16500,-1236,1,0,0
36127,89995,482.78,483.35,-180,16460,-1032,1,0,0
36161,89996,482.68,483.34,-60,16528,-1124,1,0,0
36195,89996,482.68,483.33,-144,16456,-1140,1,0,0
36229,89996,482.68,483.33,-196,16504,-1164,1,0,0
36262,89996,482.68,483.32,-212,16464,-1240,1,0,0
36296,89995,482.78,483.31,-84,16436,-1028,1,0,0
36330,89996,482.68,483.31,-220,16488,-1088,1,0,0
36364,89995,482.78,483.3,-244,16496,-1112,1,0,0
36398,89996,482.68,483.29,-280,16508,-1184,1,0,0
36435,89996,482.68,483.29,-196,16500,-1216,1,0,0
36469,89995,482.78,483.28,-200,16504,-1120,1,0,0
36503,89995,482.78,483.27,-12,16268,-1272,1,0,0
36537,89995,482.78,483.27,-84,16600,-1188,1,0,0
36570,89995,482.78,483.26,-204,16464,-1116,1,0,0
36603,89995,482.78,483.26,-64,16464,-1276,1,0,0
36637,89996,482.68,483.25,-380,16536,-868,1,0,0
36671,89996,482.68,483.24,-324,16544,-1024,1,0,0
36705,89997,482.59,483.24,-1476,15952,-2988,1,0,0
36739,89996,482.68,483.23,116,18016,-704,1,0,0
36776,89996,482.68,483.22,-3456,18164,432,1,0,0
36810,89996,482.68,483.22,252,18036,-2752,1,0,0
36844,89996,482.68,483.21,-552,19112,-1444,1,0,0
36878,89996,482.68,483.21,-188,16524,-1604,1,0,0
36912,89996,482.68,483.2,4056,16516,-532,1,0,0
36944,89995,482.78,483.19,-1276,14944,-528,1,0,0
36978,89995,482.78,483.19,212,15732,-644,1,0,0
37012,89995,482.78,483.19,836,16980,632,1,0,0
37046,89995,482.78,483.18,560,13172,-988,1,0,0
37080,89995,482.78,483.18,1836,12584,-776,1,0,0
37117,89994,482.87,483.17,-2316,17676,1328,1,0,0
37151,89995,482.78,483.17,-840,17396,956,1,0,0
37184,89995,482.78,483.16,1800,19284,2512,1,0,0
37218,89996,482.68,483.16,-2260,15032,-1004,1,0,0
37252,89996,482.68,483.15,-2356,13332,836,1,0,0
37285,89995,482.78,483.15,-648,14060,704,1,0,0
37319,89995,482.78,483.15,768,16864,724,1,0,0
37353,89995,482.78,483.14,3156,18160,1588,1,0,0
37387,89996,482.68,483.14,920,16792,1040,1,0,0
37421,89996,482.68,483.13,1256,16240,-56,1,0,0
37457,89996,482.68,483.13,876,16436,-560,1,0,0
37491,89996,482.68,483.12,-604,15356,-1564,1,0,0
37525,89996,482.68,483.12,-1356,14760,-2488,1,0,0
37559,89996,482.68,483.11,13060,25984,-9756,1,0,0
37602,89996,482.68,483.11,2756,14196,-5720,1,0,0
37636,89996,482.68,483.1,11212,19264,-10700,1,0,0
37669,89996,482.68,483.1,1120,15860,-2224,1,0,0
37703,89996,482.68,483.09,-204,16404,-1652,1,0,0
37737,89996,482.68,483.09,-1016,15640,-800,1,0,0
37771,89996,482.68,483.08,-780,16636,-1996,1,0,0
37808,89996,482.68,483.08,-568,16408,-1992,1,0,0
37841,89997,482.59,483.08,-480,16648,-1964,1,0,0
37875,89996,482.68,483.07,-1172,16648,-1544,1,0,0
37919,89997,482.59,483.07,-696,16524,-1880,1,0,0
37953,89997,482.59,483.06,-776,16404,-1928,1,0,0
37987,89997,482.59,483.06,-692,16408,-1908,1,0,0
38021,89997,482.59,483.05,-684,16456,-1996,1,0,0
38054,89997,482.59,483.05,-768,16464,-1816,1,0,0
38088,89997,482.59,483.04,-836,16436,-1972,1,0,0
38126,89996,482.68,483.04,-696,16464,-1840,1,0,0
38160,89996,482.68,483.03,-672,16508,-1832,1,0,0
38193,89996,482.68,483.03,-784,16560,-1972,1,0,0
38226,89995,482.78,483.03,-744,16504,-1760,1,0,0
38260,89995,482.78,483.03,-624,16484,-1928,1,0,0
38294,89995,482.78,483.02,-696,16344,-1792,1,0,0
38328,89995,482.78,483.02,-868,16444,-1812,1,0,0
38362,89995,482.78,483.02,-664,16480,-1828,1,0,0
38395,89995,482.78,483.02,-756,16420,-1936,1,0,0
38429,89995,482.78,483.01,-708,16488,-1968,1,0,0
38466,89995,482.78,483.01,-768,16484,-1872,1,0,0
38500,89995,482.78,483.01,-756,16528,-1944,1,0,0
38534,89995,482.78,483.01,-708,16576,-1848,1,0,0
38567,89995,482.78,483,-732,16424,-1956,1,0,0
38601,89995,482.78,483,-720,16384,-1948,1,0,0
38635,89995,482.78,483,-632,16492,-1792,1,0,0
38669,89995,482.78,483,-696,16548,-1776,1,0,0
38703,89995,482.78,482.99,-740,16440,-1768,1,0,0
38736,89995,482.78,482.99,-772,16512,-1792,1,0,0
38770,89995,482.78,482.99,-688,16536,-1944,1,0,0
38807,89995,482.78,482.99,-732,16432,-1844,1,0,0
38841,89994,482.87,482.99,-816,16404,-1920,1,0,0
38875,89994,482.87,482.99,-812,16492,-1876,1,0,0
38908,89994,482.87,482.99,-768,16564,-1936,1,0,0
38942,89995,482.78,482.98,-736,16440,-1976,1,0,0
38976,89995,482.78,482.98,-688,16372,-1900,1,0,0
39010,89994,482.87,482.98,-672,16412,-1852,1,0,0
39044,89994,482.87,482.98,-672,16508,-1872,1,0,0
39077,89994,482.87,482.98,-700,16500,-1980,1,0,0
39114,89993,482.96,482.98,-664,16544,-1896,1,0,0
39148,89993,482.96,482.98,-744,16452,-1900,1,0,0
39182,89993,482.96,482.98,-712,16492,-1996,1,0,0
39216,89993,482.96,482.98,-652,16384,-1920,1,0,0
39249,89992,483.05,482.98,-704,16468,-1936,1,0,0
39283,89992,483.05,482.98,-856,16520,-1856,1,0,0
39317,89992,483.05,482.98,-756,16452,-1928,1,0,0
39351,89992,483.05,482.98,-720,16420,-1948,1,0,0
39385,89993,482.96,482.98,-680,16540,-1900,1,0,0
39418,89993,482.96,482.98,-796,16480,-1980,1,0,0
39455,89993,482.96,482.98,-720,16436,-1832,1,0,0
39489,89993,482.96,482.98,-664,16420,-1904,1,0,0
39532,89993,482.96,482.98,-676,16508,-1984,1,0,0
39566,89993,482.96,482.98,-676,16412,-1880,1,0,0
39600,89993,482.96,482.98,-720,16412,-1940,1,0,0
39633,89993,482.96,482.98,-776,16364,-1740,1,0,0
39666,89993,482.96,482.98,-760,16436,-1884,1,0,0
39700,89993,482.96,482.98,-772,16540,-1964,1,0,0
39734,89993,482.96,482.98,-704,16508,-1812,1,0,0
39768,89992,483.05,482.98,-716,16500,-1828,1,0,0
39799,89992,483.05,482.98,-692,16448,-1972,1,0,0
39833,89992,483.05,482.98,-696,16520,-1900,1,0,0
39876,89992,483.05,482.98,-748,16400,-1964,1,0,0
39910,89992,483.05,482.98,-772,16548,-1936,1,0,0
39944,89993,482.96,482.98,-740,16376,-1896,1,0,0
39977,89992,483.05,482.98,-836,16484,-2020,1,0,0
40011,89993,482.96,482.98,-688,16500,-1904,1,0,0
40045,89993,482.96,482.98,-636,16496,-1956,1,0,0
40079,89993,482.96,482.98,-768,16364,-1912,1,0,0
40116,89993,482.96,482.98,-680,16552,-1828,1,0,0
40150,89994,482.87,482.98,-640,16528,-1872,1,0,0
40183,89994,482.87,482.98,-784,16440,-1864,1,0,0
40217,89993,482.96,482.98,-708,16420,-1900,1,0,0
40251,89993,482.96,482.98,-632,16480,-1932,1,0,0
40285,89993,482.96,482.98,-760,16468,-1948,1,0,0
40318,89992,483.05,482.98,-812,16384,-1836,1,0,0
40352,89992,483.05,482.98,-700,16508,-1796,1,0,0
40386,89993,482.96,482.98,-700,16396,-1888,1,0,0
40419,89993,482.96,482.98,-640,16528,-1820,1,0,0
40457,89993,482.96,482.98,-656,16468,-1984,1,0,0
40491,89993,482.96,482.98,-628,16468,-1840,1,0,0
40524,89993,482.96,482.98,-796,16412,-1852,1,0,0
40558,89993,482.96,482.98,-624,16516,-1836,1,0,0
40591,89993,482.96,482.98,-756,16444,-1936,1,0,0
40625,89993,482.96,482.98,-792,16476,-1804,1,0,0
40658,89993,482.96,482.98,-700,16440,-1744,1,0,0
40692,89993,482.96,482.98,-788,16512,-1968,1,0,0
40726,89992,483.05,482.98,-680,16460,-1960,1,0,0
40764,89992,483.05,482.98,-856,16460,-1884,1,0,0
40797,89992,483.05,482.98,-740,16512,-1944,1,0,0
40830,89992,483.05,482.98,-724,16496,-1920,1,0,0
40864,89992,483.05,482.98,-720,16344,-1820,1,0,0
40898,89992,483.05,482.98,-720,16488,-1948,1,0,0
40932,89992,483.05,482.98,-812,16504,-1768,1,0,0
40966,89992,483.05,482.98,-728,16572,-1760,1,0,0
40999,89992,483.05,482.98,-776,16428,-1984,1,0,0
41032,89992,483.05,482.98,-760,16476,-1880,1,0,0
41066,89992,483.05,482.98,-752,16400,-1916,1,0,0
41104,89991,483.15,482.98,-688,16456,-1840,1,0,0
41138,89991,483.15,482.99,-772,16496,-1780,1,0,0
41171,89991,483.15,482.99,-628,16448,-1824,1,0,0
41204,89991,483.15,482.99,-640,16448,-1920,1,0,0
41238,89991,483.15,482.99,-564,16468,-1944,1,0,0
41272,89991,483.15,482.99,-736,16500,-1912,1,0,0
41306,89991,483.15,482.99,-736,16444,-1832,1,0,0
41339,89992,483.05,482.99,-640,16488,-1864,1,0,0
41373,89993,482.96,482.99,-712,16500,-1880,1,0,0
41406,89992,483.05,482.99,-800,16528,-2040,1,0,0
41444,89992,483.05,482.99,-712,16472,-1944,1,0,0
41487,89992,483.05,482.99,-656,16404,-1884,1,0,0
41520,89992,483.05,482.99,-784,16396,-1904,1,0,0
41553,89992,483.05,482.99,-716,16412,-1896,1,0,0
41587,89991,483.15,482.99,-812,16464,-1844,1,0,0
41621,89991,483.15,482.99,-828,16452,-1896,1,0,0
41655,89991,483.15,483,-736,16520,-1832,1,0,0
41689,89991,483.15,483,-680,16516,-1948,1,0,0
41722,89991,483.15,483,-768,16432,-1828,1,0,0
41759,89991,483.15,483,-712,16488,-1840,1,0,0
41793,89991,483.15,483,-768,16396,-1896,1,0,0
41837,89991,483.15,483,-732,16460,-1972,1,0,0
41871,89992,483.05,483,-744,16472,-1896,1,0,0
41905,89992,483.05,483,-768,16468,-1928,1,0,0
41937,89992,483.05,483,-656,16380,-1960,1,0,0
41971,89991,483.05,483,-692,16392,-1888,1,0,0
42005,89991,483.15,483,-648,16468,-1856,1,0,0
42039,89992,483.05,483,-816,16476,-1852,1,0,0
42073,89991,483.15,483,-696,16420,-1908,1,0,0
42110,89991,483.15,483,-816,16416,-1800,1,0,0
42143,89991,483.15,483,-728,16428,-1960,1,0,0
42177,89991,483.15,483,-768,16532,-1836,1,0,0
42211,89991,483.15,483.01,-692,16504,-1820,1,0,0
42245,89991,483.15,483.01,-728,16428,-1964,1,0,0
42278,89991,483.15,483.01,-680,16496,-1912,1,0,0
42311,89990,483.24,483.01,-664,16420,-1852,1,0,0
42345,89990,483.24,483.01,-732,16488,-1928,1,0,0
42379,89991,483.15,483.01,-668,16472,-1900,1,0,0
42413,89991,483.15,483.01,-788,16520,-1844,1,0,0
42450,89991,483.15,483.01,-724,16512,-1832,1,0,0
42483,89991,483.15,483.01,-748,16400,-1856,1,0,0
42517,89990,483.24,483.01,-748,16312,-1924,1,0,0
42551,89990,483.24,483.01,-680,16436,-1932,1,0,0
42585,89990,483.24,483.02,-784,16488,-1916,1,0,0
42618,89989,483.24,483.02,-804,16328,-1900,1,0,0
42652,89989,483.33,483.02,-664,16372,-1820,1,0,0
42685,89988,483.43,483.02,-760,16412,-1760,1,0,0
42719,89988,483.43,483.02,-676,16480,-1828,1,0,0
42757,89988,483.43,483.03,-792,16412,-1896,1,0,0
42790,89988,483.43,483.03,-688,16436,-1876,1,0,0
42823,89988,483.43,483.03,-708,16552,-1828,1,0,0
42857,89989,483.33,483.03,-664,16464,-1876,1,0,0
42891,89988,483.43,483.03,-720,16504,-1948,1,0,0
42925,89989,483.33,483.04,-620,16436,-1928,1,0,0
42958,89990,483.24,483.04,-632,16352,-1824,1,0,0
42992,89989,483.33,483.04,-772,16540,-1780,1,0,0
43025,89989,483.33,483.04,-816,16432,-1912,1,0,0
43059,89989,483.33,483.04,-720,16456,-1796,1,0,0
43097,89989,483.33,483.04,-668,16448,-1940,1,0,0
43129,89989,483.33,483.04,-740,16416,-1900,1,0,0
43163,89989,483.33,483.05,-728,16392,-1824,1,0,0
43197,89989,483.33,483.05,-840,16536,-1808,1,0,0
43231,89988,483.43,483.05,-568,16416,-2064,1,0,0
43265,89988,483.43,483.05,-696,16428,-1884,1,0,0
43298,89988,483.43,483.05,-628,16384,-1956,1,0,0
43331,89988,483.43,483.06,-704,16448,-1928,1,0,0
43365,89988,483.43,483.06,-776,16372,-1760,1,0,0
43399,89988,483.43,483.06,-820,16468,-1788,1,0,0
43445,89988,483.43,483.06,-636,16488,-1956,1,0,0
43479,89988,483.43,483.06,-744,16480,-1836,1,0,0
43512,89989,483.33,483.07,-660,16512,-1900,1,0,0
43546,89989,483.33,483.07,-792,16516,-1880,1,0,0
43580,89988,483.43,483.07,-692,16524,-1808,1,0,0
43613,89988,483.43,483.07,-792,16516,-1856,1,0,0
43646,89988,483.43,483.07,-688,16444,-1844,1,0,0
43680,89987,483.52,483.08,-756,16492,-1924,1,0,0
43714,89987,483.52,483.08,-784,16428,-1920,1,0,0
43761,89987,483.52,483.08,-756,16508,-1932,1,0,0
43795,89987,483.52,483.08,-716,16516,-1876,1,0,0
43829,89987,483.52,483.09,-788,16420,-1856,1,0,0
43863,89987,483.52,483.09,-732,16456,-1924,1,0,0
43896,89987,483.52,483.09,-712,16416,-1900,1,0,0
43929,89987,483.52,483.09,-696,16464,-1980,1,0,0
43963,89987,483.52,483.09,-680,16404,-1936,1,0,0
43997,89987,483.52,483.1,-756,16380,-1840,1,0,0
44030,89987,483.52,483.1,-604,16448,-1820,1,0,0
44064,89987,483.52,483.1,-820,16424,-1864,1,0,0
44101,89987,483.52,483.1,-724,16460,-1832,1,0,0
44135,89987,483.52,483.11,-664,16488,-1976,1,0,0
44169,89986,483.61,483.11,-644,16480,-1904,1,0,0
44201,89986,483.61,483.11,-748,16428,-1900,1,0,0
44235,89986,483.61,483.12,-696,16372,-1908,1,0,0
44269,89986,483.61,483.12,-728,16396,-1872,1,0,0
44303,89986,483.61,483.12,-700,16444,-1852,1,0,0
44337,89986,483.61,483.12,-732,16512,-1972,1,0,0
44370,89986,483.61,483.13,-720,16380,-1896,1,0,0
44403,89987,483.52,483.13,-764,16460,-1896,1,0,0
44441,89986,483.61,483.13,-744,16488,-1932,1,0,0
44475,89987,483.52,483.13,-676,16468,-1908,1,0,0
44508,89986,483.61,483.14,-616,16432,-2024,1,0,0
44541,89986,483.61,483.14,-792,16332,-1864,1,0,0
44575,89987,483.52,483.14,-684,16440,-1860,1,0,0
44609,89987,483.52,483.14,-752,16544,-1916,1,0,0
44643,89987,483.52,483.15,-704,16452,-1920,1,0,0
44676,89987,483.52,483.15,-776,16448,-2000,1,0,0
44709,89987,483.52,483.15,-664,16488,-1792,1,0,0
44747,89987,483.52,483.15,-608,16472,-1816,1,0,0
44780,89987,483.52,483.16,-752,16484,-1984,1,0,0
44814,89986,483.61,483.16,-696,16464,-1844,1,0,0
44848,89986,483.61,483.16,-696,16480,-1844,1,0,0
44881,89987,483.52,483.16,-688,16420,-1856,1,0,0
44915,89987,483.52,483.17,-740,16440,-1912,1,0,0
44948,89987,483.52,483.17,-672,16564,-1824,1,0,0
44982,89987,483.52,483.17,-736,16464,-1848,1,0,0
45016,89986,483.61,483.17,-752,16524,-1784,1,0,0
45049,89986,483.61,483.18,-704,16444,-1812,1,0,0
45086,89986,483.61,483.18,-736,16456,-1916,1,0,0
45120,89985,483.7,483.18,-736,16412,-1828,1,0,0
45154,89985,483.7,483.18,-584,16456,-1856,1,0,0
45187,89985,483.7,483.19,-700,16404,-1912,1,0,0
45220,89985,483.7,483.19,-832,16476,-1864,1,0,0
45254,89985,483.7,483.19,-712,16440,-1964,1,0,0
45288,89985,483.7,483.2,-684,16520,-1896,1,0,0
45322,89986,483.61,483.2,-752,16544,-2012,1,0,0
45355,89986,483.61,483.2,-700,16388,-1868,1,0,0
45398,89986,483.61,483.21,-768,16500,-1668,1,0,0
45435,89986,483.61,483.21,-732,16444,-1836,1,0,0
45468,89987,483.52,483.21,-728,16480,-1748,1,0,0
45502,89987,483.52,483.21,-756,16424,-1792,1,0,0
45536,89986,483.61,483.21,-720,16488,-1864,1,0,0
45570,89986,483.61,483.22,-688,16424,-1924,1,0,0
45602,89986,483.61,483.22,-688,16460,-1960,1,0,0
45636,89986,483.61,483.22,-736,16444,-1900,1,0,0
45670,89985,483.7,483.22,-772,16524,-1880,1,0,0
45714,89985,483.7,483.23,-796,16380,-1880,1,0,0
45751,89985,483.7,483.23,-760,16428,-2052,1,0,0
45784,89985,483.7,483.23,-648,16456,-1904,1,0,0
45817,89986,483.61,483.24,-740,16404,-1920,1,0,0
45851,89986,483.61,483.24,-788,16532,-1792,1,0,0
45884,89985,483.7,483.24,-672,16484,-1948,1,0,0
45918,89985,483.7,483.24,-624,16512,-1832,1,0,0
45950,89985,483.7,483.25,-728,16424,-1876,1,0,0
45984,89984,483.8,483.25,-696,16468,-1908,1,0,0
46017,89984,483.8,483.25,-696,16364,-1880,1,0,0
46051,89984,483.8,483.26,-720,16360,-1964,1,0,0
46088,89984,483.8,483.26,-712,16416,-1936,1,0,0
46121,89985,483.7,483.26,-792,16488,-1916,1,0,0
46154,89984,483.8,483.27,-688,16556,-1936,1,0,0
46188,89984,483.8,483.27,-620,16448,-1872,1,0,0
46222,89984,483.8,483.28,-792,16528,-1948,1,0,0
46255,89983,483.89,483.28,-776,16468,-1808,1,0,0
46288,89983,483.89,483.28,-736,16512,-1920,1,0,0
46321,89983,483.89,483.29,-712,16468,-1908,1,0,0
46355,89983,483.89,483.29,-796,16432,-1876,1,0,0
46388,89983,483.89,483.3,-760,16500,-1792,1,0,0
46426,89983,483.89,483.3,-728,16492,-1972,1,0,0
46459,89983,483.89,483.3,-712,16460,-1864,1,0,0
46493,89983,483.89,483.31,-784,16408,-1904,1,0,0
46527,89982,483.98,483.31,-660,16480,-1912,1,0,0
46561,89982,483.98,483.32,-672,16436,-1912,1,0,0
46595,89983,483.89,483.32,-708,16492,-1968,1,0,0
46628,89983,483.89,483.33,-732,16544,-1840,1,0,0
46662,89984,483.8,483.33,-764,16560,-1852,1,0,0
46696,89984,483.8,483.33,-592,16488,-1908,1,0,0
46733,89984,483.8,483.34,-732,16432,-1864,1,0,0
46767,89985,483.7,483.34,-712,16500,-1760,1,0,0
46800,89985,483.7,483.34,-708,16572,-1876,1,0,0
46834,89985,483.7,483.34,-780,16464,-1788,1,0,0
46868,89985,483.7,483.35,-744,16376,-1888,1,0,0
46902,89985,483.7,483.35,-740,16480,-2012,1,0,0
46936,89985,483.7,483.35,-696,16440,-1820,1,0,0
46969,89985,483.7,483.35,-820,16484,-1980,1,0,0
47003,89985,483.7,483.36,-652,16432,-1876,1,0,0
47037,89985,483.7,483.36,-684,16468,-1836,1,0,0
47075,89985,483.7,483.36,-684,16428,-1936,1,0,0
47109,89984,483.8,483.36,-792,16460,-1920,1,0,0
47142,89984,483.8,483.37,-692,16484,-1880,1,0,0
47176,89985,483.7,483.37,-684,16480,-1992,1,0,0
47210,89985,483.7,483.37,-776,16484,-1816,1,0,0
47244,89984,483.8,483.38,-712,16496,-1792,1,0,0
47278,89985,483.7,483.38,-632,16540,-1852,1,0,0
47321,89985,483.7,483.38,-700,16520,-1684,1,0,0
47354,89985,483.7,483.38,-712,16488,-1820,1,0,0
47388,89985,483.7,483.39,-728,16408,-1844,1,0,0
47425,89985,483.7,483.39,-684,16472,-1912,1,0,0
47459,89986,483.61,483.39,-748,16464,-1960,1,0,0
47493,89985,483.7,483.39,-784,16472,-1952,1,0,0
47526,89985,483.7,483.39,-732,16484,-1832,1,0,0
47560,89985,483.7,483.4,-592,16496,-1996,1,0,0
47594,89985,483.7,483.4,-732,16480,-1856,1,0,0
47628,89985,483.7,483.4,-672,16484,-1884,1,0,0
47673,89985,483.7,483.4,-792,16496,-1948,1,0,0
47707,89985,483.7,483.4,-736,16416,-1868,1,0,0
47745,89985,483.7,483.41,-728,16448,-1844,1,0,0
47778,89985,483.7,483.41,-660,16400,-1784,1,0,0
47812,89985,483.7,483.41,-720,16500,-1996,1,0,0
47845,89985,483.7,483.41,-668,16428,-2008,1,0,0
47879,89985,483.7,483.42,-740,16420,-1756,1,0,0
47912,89986,483.61,483.42,-804,16420,-1920,1,0,0
47946,89986,483.61,483.42,-728,16492,-1900,1,0,0
47980,89986,483.61,483.42,-664,16452,-1848,1,0,0
48014,89986,483.61,483.42,-804,16476,-1972,1,0,0
48048,89985,483.7,483.42,-716,16512,-1920,1,0,0
48086,89985,483.7,483.42,-756,16472,-1912,1,0,0
48119,89985,483.7,483.43,-792,16432,-2000,1,0,0
48153,89985,483.7,483.43,-632,16496,-1888,1,0,0
48187,89986,483.61,483.43,-704,16480,-1968,1,0,0
48221,89985,483.7,483.43,-708,16344,-1912,1,0,0
48254,89985,483.7,483.43,-884,16424,-1872,1,0,0
48288,89985,483.7,483.44,-636,16488,-1840,1,0,0
48321,89985,483.7,483.44,-728,16460,-1992,1,0,0
48355,89985,483.7,483.44,-748,16428,-1872,1,0,0
48389,89985,483.7,483.44,-688,16524,-1904,1,0,0
48427,89985,483.7,483.44,-700,16428,-1840,1,0,0
48460,89985,483.7,483.44,-720,16372,-1824,1,0,0
48494,89985,483.7,483.45,-784,16444,-1944,1,0,0
48528,89985,483.7,483.45,-692,16572,-1876,1,0,0
48562,89985,483.7,483.45,-716,16556,-1920,1,0,0
48595,89985,483.7,483.45,-704,16492,-1816,1,0,0
48629,89985,483.7,483.45,-848,16520,-2020,1,0,0
48662,89985,483.7,483.45,-704,16376,-1964,1,0,0
48696,89985,483.7,483.46,-716,16392,-1832,1,0,0
48734,89985,483.7,483.46,-712,16364,-1856,1,0,0
48768,89986,483.61,483.46,-752,16456,-1812,1,0,0
48801,89985,483.7,483.46,-672,16472,-1788,1,0,0
48835,89985,483.7,483.46,-784,16440,-1756,1,0,0
48869,89985,483.7,483.46,-752,16464,-2024,1,0,0
48903,89985,483.7,483.47,-676,16568,-1892,1,0,0
48936,89985,483.7,483.47,-744,16500,-1836,1,0,0
48970,89985,483.7,483.47,-640,16516,-1824,1,0,0
49003,89985,483.7,483.47,-680,16468,-1864,1,0,0
49037,89984,483.8,483.47,-740,16452,-1880,1,0,0
49075,89985,483.7,483.47,-856,16452,-1892,1,0,0
49108,89985,483.7,483.48,-728,16392,-1956,1,0,0
49142,89985,483.7,483.48,-672,16496,-1900,1,0,0
49176,89985,483.7,483.48,-848,16352,-1920,1,0,0
49210,89985,483.7,483.48,-800,16524,-1740,1,0,0
49243,89985,483.7,483.48,-752,16508,-1864,1,0,0
49286,89986,483.61,483.48,-780,16484,-1952,1,0,0
49319,89985,483.7,483.48,-600,16504,-1800,1,0,0
49353,89986,483.61,483.48,-672,16516,-1840,1,0,0
49387,89986,483.61,483.49,-724,16364,-1952,1,0,0
49425,89987,483.52,483.49,-708,16456,-1912,1,0,0
49459,89987,483.52,483.49,-808,16512,-1716,1,0,0
49491,89987,483.52,483.49,-736,16456,-1912,1,0,0
49525,89987,483.52,483.49,-684,16544,-1908,1,0,0
49559,89987,483.52,483.49,-736,16488,-1864,1,0,0
49604,89987,483.52,483.49,-648,16540,-1912,1,0,0
49638,89987,483.52,483.49,-752,16472,-1944,1,0,0
49672,89986,483.61,483.49,-820,16472,-1920,1,0,0
49705,89986,483.61,483.49,-712,16516,-1900,1,0,0
49742,89985,483.7,483.49,-728,16492,-1880,1,0,0
49776,89985,483.7,483.49,-732,16400,-1980,1,0,0
49810,89986,483.61,483.49,-760,16536,-1880,1,0,0
49844,89986,483.61,483.49,-724,16464,-1908,1,0,0
49878,89986,483.61,483.49,-672,16432,-1880,1,0,0
49911,89986,483.61,483.49,-716,16464,-1952,1,0,0
49945,89986,483.61,483.49,-756,16496,-1956,1,0,0
49979,89987,483.52,483.49,-708,16440,-1868,1,0,0
50013,89987,483.52,483.49,-720,16452,-1844,1,0,0
50046,89987,483.52,483.49,-820,16488,-1856,1,0,0
50083,89986,483.61,483.5,-704,16448,-1872,1,0,0
50117,89986,483.61,483.5,-704,16492,-1916,1,0,0
50151,89986,483.61,483.5,-716,16344,-1808,1,0,0
50185,89986,483.61,483.5,-688,16504,-1864,1,0,0
50219,89986,483.61,483.5,-580,16376,-1940,1,0,0
50252,89986,483.61,483.5,-804,16488,-2076,1,0,0
50286,89986,483.61,483.5,-704,16460,-1960,1,0,0
50320,89986,483.61,483.5,-704,16560,-1944,1,0,0
50354,89986,483.61,483.5,-636,16360,-2012,1,0,0
50386,89986,483.61,483.5,-704,16480,-1896,1,0,0
50424,89986,483.61,483.5,-672,16476,-1992,1,0,0
50458,89986,483.61,483.5,-812,16616,-1864,1,0,0
50492,89986,483.61,483.5,-776,16504,-1804,1,0,0
50526,89986,483.61,483.5,-792,16392,-1796,1,0,0
50560,89986,483.61,483.5,-604,16432,-1896,1,0,0
50593,89987,483.52,483.5,-648,16480,-1936,1,0,0
50627,89988,483.43,483.5,-784,16432,-1884,1,0,0
50660,89987,483.52,483.5,-752,16420,-1836,1,0,0
50694,89988,483.43,483.5,-788,16456,-1896,1,0,0
50732,89988,483.43,483.5,-688,16480,-1816,1,0,0
50765,89988,483.43,483.5,-720,16448,-1876,1,0,0
50799,89988,483.43,483.5,-704,16424,-1964,1,0,0
50833,89988,483.43,483.5,-680,16516,-1924,1,0,0
50867,89988,483.43,483.5,-680,16488,-1800,1,0,0
50899,89987,483.52,483.5,-656,16460,-1856,1,0,0
50933,89987,483.52,483.5,-748,16396,-1920,1,0,0
50967,89987,483.52,483.5,-688,16460,-1872,1,0,0
51001,89987,483.52,483.5,-716,16484,-1784,1,0,0
51035,89986,483.61,483.5,-708,16424,-1920,1,0,0
51073,89986,483.61,483.5,-800,16416,-1944,1,0,0
51106,89986,483.61,483.5,-632,16504,-1948,1,0,0
51139,89986,483.61,483.5,-680,16548,-1872,1,0,0
51173,89986,483.61,483.5,-740,16540,-1984,1,0,0
51216,89987,483.52,483.5,-712,16580,-1932,1,0,0
51250,89987,483.52,483.5,-792,16516,-2020,1,0,0
51283,89988,483.43,483.5,-692,16516,-1768,1,0,0
51317,89987,483.52,483.5,-840,16556,-1888,1,0,0
51351,89987,483.52,483.5,-596,16440,-1804,1,0,0
51385,89986,483.61,483.5,-808,16488,-1768,1,0,0
51422,89986,483.61,483.51,-704,16468,-1996,1,0,0
51456,89986,483.61,483.51,-688,16448,-1908,1,0,0
51489,89986,483.61,483.51,-804,16492,-1860,1,0,0
51534,89986,483.61,483.51,-768,16416,-1912,1,0,0
51568,89987,483.52,483.51,-764,16464,-1868,1,0,0
51601,89987,483.52,483.51,-720,16504,-1928,1,0,0
51635,89987,483.52,483.51,-804,16480,-1884,1,0,0
51668,89987,483.52,483.51,-600,16428,-1900,1,0,0
51702,89987,483.52,483.51,-752,16476,-1980,1,0,0
51740,89986,483.61,483.51,-684,16476,-1864,1,0,0
51774,89986,483.61,483.51,-700,16340,-1888,1,0,0
51807,89986,483.61,483.51,-740,16452,-1960,1,0,0
51841,89986,483.61,483.51,-740,16412,-1752,1,0,0
51874,89986,483.61,483.51,-760,16480,-1924,1,0,0
51908,89986,483.61,483.51,-728,16372,-1876,1,0,0
51942,89986,483.61,483.51,-652,16480,-1920,1,0,0
51976,89987,483.52,483.51,-776,16548,-1752,1,0,0
52009,89987,483.52,483.51,-740,16520,-1912,1,0,0
52043,89987,483.52,483.51,-648,16452,-1860,1,0,0
52080,89986,483.61,483.51,-616,16532,-2088,1,0,0
52114,89986,483.61,483.51,-692,16500,-1932,1,0,0
52148,89986,483.61,483.51,-704,16492,-1840,1,0,0
52182,89986,483.61,483.51,-736,16540,-1828,1,0,0
52215,89986,483.61,483.51,-732,16488,-1856,1,0,0
52249,89986,483.61,483.51,-744,16460,-1928,1,0,0
52282,89987,483.52,483.51,-840,16536,-1888,1,0,0
52316,89986,483.61,483.51,-796,16428,-1848,1,0,0
52349,89986,483.61,483.51,-700,16468,-1700,1,0,0
52383,89986,483.61,483.51,-660,16552,-1828,1,0,0
52421,89985,483.7,483.52,-800,16472,-1928,1,0,0
52455,89985,483.7,483.52,-716,16508,-1828,1,0,0
52488,89985,483.7,483.52,-660,16528,-1932,1,0,0
52521,89985,483.7,483.52,-772,16480,-1876,1,0,0
52555,89985,483.7,483.52,-852,16508,-1940,1,0,0
52589,89985,483.7,483.52,-716,16396,-1884,1,0,0
52623,89984,483.8,483.52,-728,16436,-1920,1,0,0
52657,89985,483.7,483.52,-704,16560,-1920,1,0,0
52690,89985,483.7,483.52,-704,16444,-1880,1,0,0
52727,89986,483.61,483.52,-768,16496,-1880,1,0,0
52761,89986,483.61,483.52,-716,16452,-1880,1,0,0
52795,89985,483.7,483.52,-756,16404,-1848,1,0,0
52829,89986,483.61,483.52,-684,16496,-1924,1,0,0
52862,89986,483.61,483.53,-712,16412,-1856,1,0,0
52895,89986,483.61,483.53,-796,16444,-1996,1,0,0
52929,89986,483.61,483.53,-732,16468,-1840,1,0,0
52963,89986,483.61,483.53,-668,16416,-1796,1,0,0
52997,89986,483.61,483.53,-584,16512,-1864,1,0,0
53030,89986,483.61,483.53,-752,16364,-1772,1,0,0
53067,89986,483.61,483.53,-752,16396,-1952,1,0,0
53101,89986,483.61,483.53,-668,16436,-1732,1,0,0
53135,89986,483.61,483.53,-724,16480,-1768,1,0,0
53178,89986,483.61,483.53,-748,16464,-1920,1,0,0
53212,89986,483.61,483.53,-700,16512,-1872,1,0,0
53245,89986,483.61,483.53,-780,16392,-1884,1,0,0
53278,89985,483.7,483.53,-712,16520,-1740,1,0,0
53312,89985,483.7,483.53,-720,16392,-1924,1,0,0
53346,89985,483.7,483.53,-736,16380,-1892,1,0,0
53380,89985,483.7,483.53,-680,16552,-1948,1,0,0
53417,89985,483.7,483.53,-760,16508,-1844,1,0,0
53462,89985,483.7,483.53,-736,16456,-1768,1,0,0
53495,89985,483.7,483.53,-664,16592,-1936,1,0,0
53529,89986,483.61,483.54,-764,16432,-1884,1,0,0
53563,89986,483.61,483.54,-680,16500,-1964,1,0,0
53596,89985,483.7,483.54,-636,16456,-2016,1,0,0
53629,89985,483.7,483.54,-616,16352,-1864,1,0,0
53663,89985,483.7,483.54,-600,16500,-1960,1,0,0
53697,89985,483.7,483.54,-732,16400,-1972,1,0,0
53735,89985,483.7,483.54,-852,16376,-1884,1,0,0
53768,89985,483.7,483.54,-696,16456,-1892,1,0,0
53801,89986,483.61,483.54,-576,16504,-1952,1,0,0
53835,89986,483.61,483.54,-672,16516,-1840,1,0,0
53869,89986,483.61,483.54,-800,16500,-1800,1,0,0
53903,89986,483.61,483.54,-692,16388,-1968,1,0,0
53937,89987,483.52,483.54,-624,16440,-1944,1,0,0
53969,89987,483.52,483.54,-784,16440,-1852,1,0,0
54003,89986,483.61,483.54,-784,16556,-1924,1,0,0
54037,89985,483.7,483.54,-612,16420,-1896,1,0,0
54075,89985,483.7,483.54,-776,16556,-1836,1,0,0
54108,89985,483.7,483.54,-676,16392,-1844,1,0,0
54141,89985,483.7,483.54,-732,16440,-1896,1,0,0
54175,89986,483.61,483.54,-660,16508,-1868,1,0,0
54209,89986,483.61,483.54,-760,16428,-1956,1,0,0
54243,89986,483.61,483.54,-736,16540,-1896,1,0,0
54277,89986,483.61,483.54,-764,16428,-1940,1,0,0
54309,89987,483.52,483.54,-672,16456,-1888,1,0,0
54343,89987,483.52,483.54,-712,16432,-1912,1,0,0
54377,89988,483.43,483.54,-824,16456,-1768,1,0,0
54415,89987,483.52,483.54,-772,16464,-1952,1,0,0
54449,89987,483.52,483.54,-744,16488,-1884,1,0,0
54481,89987,483.52,483.54,-716,16492,-1864,1,0,0
54515,89987,483.52,483.54,-776,16576,-1808,1,0,0
54549,89987,483.52,483.54,-692,16484,-1892,1,0,0
54583,89987,483.52,483.54,-756,16520,-1856,1,0,0
54617,89986,483.61,483.54,-688,16396,-1828,1,0,0
54650,89986,483.61,483.54,-720,16420,-1852,1,0,0
54683,89987,483.52,483.54,-788,16440,-1936,1,0,0
54721,89987,483.52,483.54,-740,16472,-1936,1,0,0
54755,89987,483.52,483.54,-672,16508,-1940,1,0,0
54789,89987,483.52,483.54,-776,16504,-2008,1,0,0
54821,89987,483.52,483.54,-752,16476,-2004,1,0,0
54855,89987,483.52,483.54,-700,16492,-1952,1,0,0
54889,89987,483.52,483.54,-632,16472,-1880,1,0,0
54923,89988,483.43,483.54,-676,16460,-1888,1,0,0
54957,89987,483.52,483.54,-732,16568,-1880,1,0,0
54989,89987,483.52,483.54,-744,16468,-1992,1,0,0
55023,89987,483.52,483.54,-776,16444,-1960,1,0,0
55061,89987,483.52,483.54,-716,16380,-1860,1,0,0
55103,89987,483.52,483.54,-688,16372,-1876,1,0,0
55137,89987,483.52,483.54,-788,16432,-2004,1,0,0
55171,89988,483.43,483.54,-872,16500,-1832,1,0,0
55204,89988,483.43,483.54,-592,16468,-1884,1,0,0
55238,89988,483.43,483.54,-556,16464,-2016,1,0,0
55271,89988,483.43,483.54,-868,16416,-1776,1,0,0
55305,89988,483.43,483.54,-764,16368,-1824,1,0,0
55339,89988,483.43,483.54,-592,16528,-2000,1,0,0
55384,89988,483.43,483.54,-788,16432,-1904,1,0,0
55420,89987,483.52,483.54,-776,16428,-1852,1,0,0
55454,89987,483.52,483.54,-780,16392,-1744,1,0,0
55488,89986,483.61,483.54,-648,16460,-1916,1,0,0
55522,89986,483.61,483.54,-632,16384,-1908,1,0,0
55555,89986,483.61,483.54,-856,16460,-1720,1,0,0
55588,89987,483.52,483.54,-728,16508,-1868,1,0,0
55622,89987,483.52,483.54,-692,16652,-2000,1,0,0
55656,89986,483.61,483.54,-704,16388,-1780,1,0,0
55690,89986,483.61,483.54,-736,16468,-1944,1,0,0
55727,89986,483.61,483.54,-756,16464,-1788,1,0,0
55760,89986,483.61,483.54,-696,16472,-1848,1,0,0
55794,89986,483.61,483.54,-684,16500,-1912,1,0,0
55827,89986,483.61,483.54,-808,16428,-1980,1,0,0
55861,89986,483.61,483.54,-724,16540,-1928,1,0,0
55895,89986,483.61,483.54,-548,16412,-1868,1,0,0
55928,89986,483.61,483.54,-856,16448,-1872,1,0,0
55962,89986,483.61,483.54,-720,16496,-1936,1,0,0
55995,89986,483.61,483.54,-772,16448,-1932,1,0,0
56029,89987,483.52,483.54,-580,16420,-1936,1,0,0
56067,89987,483.52,483.54,-796,16380,-1844,1,0,0
56100,89987,483.52,483.54,-720,16412,-1800,1,0,0
56133,89987,483.52,483.54,-708,16516,-1784,1,0,0
56167,89987,483.52,483.54,-728,16500,-1908,1,0,0
56201,89988,483.43,483.54,-792,16476,-1732,1,0,0
56235,89987,483.52,483.54,-632,16520,-1932,1,0,0
56268,89987,483.52,483.54,-720,16516,-1908,1,0,0
56301,89987,483.52,483.54,-780,16448,-1996,1,0,0
56335,89987,483.52,483.54,-768,16484,-1892,1,0,0
56369,89987,483.52,483.54,-692,16476,-1960,1,0,0
56406,89987,483.52,483.54,-696,16548,-1948,1,0,0
56439,89986,483.61,483.54,-672,16432,-1944,1,0,0
56472,89987,483.52,483.54,-728,16424,-1808,1,0,0
56506,89986,483.52,483.54,-716,16596,-1920,1,0,0
56540,89986,483.61,483.54,-724,16452,-1816,1,0,0
56572,89986,483.61,483.54,-780,16436,-2000,1,0,0
56606,89986,483.61,483.54,-648,16428,-1920,1,0,0
56639,89986,483.61,483.54,-760,16576,-1896,1,0,0
56673,89986,483.61,483.54,-680,16432,-1896,1,0,0
56792,89986,483.61,483.54,-716,16516,-1860,1,0,0
56825,89986,483.61,483.54,-664,16492,-1968,1,0,0
56858,89986,483.61,483.54,-744,16396,-1904,1,0,0
56892,89986,483.61,483.54,-712,16480,-2000,1,0,0
56926,89986,483.61,483.54,-832,16548,-1992,1,0,0
56958,89986,483.61,483.54,-712,16392,-1780,1,0,0
56992,89986,483.61,483.54,-672,16428,-1888,1,0,0
57026,89985,483.7,483.54,-604,16488,-1936,1,0,0
57059,89986,483.61,483.54,-808,16520,-1752,1,0,0
57102,89986,483.61,483.54,-676,16424,-1880,1,0,0
57139,89985,483.7,483.55,-744,16552,-2060,1,0,0
57172,89985,483.7,483.55,-736,16508,-1848,1,0,0
57206,89985,483.7,483.55,-728,16436,-1876,1,0,0
57240,89985,483.7,483.55,-692,16488,-1860,1,0,0
57274,89985,483.7,483.55,-800,16496,-1796,1,0,0
57308,89985,483.7,483.55,-776,16476,-1864,1,0,0
57341,89986,483.61,483.55,-756,16464,-1856,1,0,0
57388,89986,483.61,483.55,-768,16520,-1900,1,0,0
57421,89985,483.7,483.55,-752,16396,-1792,1,0,0
57455,89985,483.7,483.55,-760,16448,-1940,1,0,0
57486,89985,483.7,483.55,-708,16484,-1996,1,0,0
57520,89985,483.7,483.55,-712,16400,-1960,1,0,0
57553,89985,483.7,483.55,-744,16428,-1852,1,0,0
57587,89986,483.61,483.55,-720,16420,-1776,1,0,0
57621,89986,483.61,483.55,-664,16488,-1868,1,0,0
57655,89986,483.61,483.55,-688,16384,-1960,1,0,0
57689,89986,483.61,483.55,-812,16468,-1924,1,0,0
57722,89985,483.7,483.55,-744,16492,-2000,1,0,0
57756,89985,483.7,483.55,-752,16440,-2008,1,0,0
57794,89986,483.61,483.55,-684,16540,-1976,1,0,0
57828,89985,483.7,483.55,-716,16576,-1888,1,0,0
57862,89985,483.7,483.55,-736,16500,-1924,1,0,0
57895,89985,483.7,483.55,-704,16496,-1884,1,0,0
57929,89984,483.8,483.56,-740,16484,-1876,1,0,0
57963,89984,483.8,483.56,-676,16468,-1920,1,0,0
57997,89984,483.8,483.56,-672,16412,-1916,1,0,0
58031,89984,483.8,483.56,-744,16456,-2000,1,0,0
58064,89984,483.8,483.56,-696,16520,-1904,1,0,0
58098,89984,483.8,483.56,-700,16476,-1880,1,0,0
58135,89984,483.8,483.56,-660,16496,-1892,1,0,0
58169,89983,483.89,483.56,-768,16468,-1800,1,0,0
58203,89983,483.89,483.56,-736,16472,-1908,1,0,0
58236,89983,483.89,483.56,-644,16496,-1868,1,0,0
58270,89983,483.89,483.56,-824,16544,-1816,1,0,0
58304,89983,483.89,483.57,-792,16344,-1988,1,0,0
58338,89983,483.89,483.57,-664,16372,-2084,1,0,0
58372,89983,483.89,483.57,-632,16576,-1988,1,0,0
58405,89983,483.89,483.57,-740,16384,-2008,1,0,0
58443,89984,483.8,483.57,-652,16400,-1936,1,0,0
58477,89983,483.89,483.57,-688,16456,-1812,1,0,0
58511,89983,483.89,483.57,-736,16420,-1752,1,0,0
58545,89983,483.89,483.57,-808,16564,-1956,1,0,0
58578,89983,483.89,483.57,-704,16500,-1872,1,0,0
58612,89983,483.89,483.58,-764,16424,-1976,1,0,0
58646,89983,483.89,483.58,-680,16416,-1836,1,0,0
58680,89983,483.89,483.58,-764,16332,-1876,1,0,0
58714,89983,483.89,483.58,-804,16380,-1820,1,0,0
58747,89983,483.89,483.58,-632,16488,-1928,1,0,0
58784,89983,483.89,483.58,-616,16476,-1828,1,0,0
58818,89983,483.89,483.58,-712,16356,-1844,1,0,0
58852,89984,483.8,483.58,-716,16508,-1832,1,0,0
58886,89983,483.89,483.58,-820,16484,-1856,1,0,0
58919,89983,483.89,483.58,-704,16448,-1868,1,0,0
58953,89983,483.89,483.59,-728,16532,-1856,1,0,0
58987,89984,483.8,483.59,-696,16468,-1912,1,0,0
59021,89984,483.8,483.59,-792,16492,-1852,1,0,0
59064,89984,483.8,483.59,-712,16452,-1828,1,0,0
59098,89984,483.8,483.59,-704,16568,-1788,1,0,0
59136,89983,483.89,483.59,-684,16512,-1968,1,0,0
59169,89983,483.89,483.59,-760,16456,-1848,1,0,0
59203,89982,483.98,483.59,-584,16360,-1944,1,0,0
59237,89982,483.98,483.59,-676,16492,-2000,1,0,0
59271,89982,483.98,483.59,-656,16396,-1944,1,0,0
59316,89982,483.98,483.6,-728,16332,-1960,1,0,0
59350,89982,483.98,483.6,-716,16456,-1924,1,0,0
59383,89982,483.98,483.6,-876,16376,-1972,1,0,0
59417,89982,483.98,483.6,-732,16428,-1836,1,0,0
59455,89982,483.98,483.6,-756,16416,-2052,1,0,0
59489,89982,483.98,483.6,-700,16452,-1848,1,0,0
59522,89982,483.98,483.6,-804,16408,-1972,1,0,0
59555,89982,483.98,483.61,-816,16432,-1864,1,0,0
59589,89982,483.98,483.61,-760,16368,-1868,1,0,0
59623,89983,483.89,483.61,-624,16516,-1840,1,0,0
59657,89983,483.89,483.61,-600,16484,-1968,1,0,0
59691,89983,483.89,483.61,-812,16400,-2004,1,0,0
59724,89982,483.98,483.61,-628,16520,-1856,1,0,0
59758,89982,483.98,483.61,-720,16440,-1864,1,0,0
59796,89982,483.98,483.61,-680,16460,-1976,1,0,0
59830,89982,483.98,483.62,-600,16384,-1804,1,0,0
59864,89982,483.98,483.62,-804,16524,-1940,1,0,0
59897,89982,483.98,483.62,-724,16460,-1856,1,0,0
59931,89982,483.98,483.62,-712,16432,-1896,1,0,0
59964,89982,483.98,483.62,-736,16464,-1944,1,0,0
59998,89982,483.98,483.62,-776,16484,-1808,1,0,0
60032,89983,483.89,483.62,-788,16428,-1816,1,0,0
60065,89982,483.98,483.63,-708,16516,-1892,1,0,0
60099,89982,483.98,483.63,-656,16420,-1848,1,0,0
60137,89982,483.98,483.63,-680,16440,-1892,1,0,0
60171,89982,483.98,483.63,-656,16476,-1864,1,0,0
60205,89982,483.98,483.63,-768,16508,-1860,1,0,0
60238,89982,483.98,483.63,-680,16412,-1924,1,0,0
60271,89982,483.98,483.63,-648,16496,-1944,1,0,0
60305,89982,483.98,483.64,-768,16504,-1820,1,0,0
60339,89983,483.89,483.64,-676,16508,-1800,1,0,0
60372,89983,483.89,483.64,-780,16412,-2056,1,0,0
60406,89983,483.89,483.64,-680,16472,-1876,1,0,0
60444,89983,483.89,483.64,-656,16460,-1856,1,0,0
60478,89983,483.89,483.64,-600,16468,-1892,1,0,0
60512,89983,483.89,483.64,-748,16492,-1960,1,0,0
60546,89983,483.89,483.64,-752,16484,-1904,1,0,0
60579,89983,483.89,483.64,-616,16476,-1964,1,0,0
60613,89984,483.8,483.64,-668,16480,-1896,1,0,0
60646,89983,483.89,483.64,-828,16440,-1956,1,0,0
60680,89983,483.89,483.65,-724,16472,-1880,1,0,0
60713,89984,483.8,483.65,-616,16448,-1824,1,0,0
60747,89984,483.8,483.65,-664,16432,-2040,1,0,0
60785,89984,483.8,483.65,-572,16336,-2008,1,0,0
60819,89985,483.7,483.65,-824,16484,-1864,1,0,0
60853,89985,483.7,483.65,-700,16560,-1864,1,0,0
60887,89985,483.7,483.65,-708,16464,-1848,1,0,0
60919,89984,483.7,483.65,-756,16472,-2012,1,0,0
60953,89984,483.8,483.65,-824,16444,-1908,1,0,0
60987,89984,483.8,483.65,-688,16420,-1864,1,0,0
61030,89984,483.8,483.65,-720,16460,-1908,1,0,0
61064,89983,483.8,483.65,-700,16360,-1972,1,0,0
61097,89983,483.89,483.65,-788,16512,-1888,1,0,0
61135,89983,483.89,483.65,-712,16476,-1968,1,0,0
61168,89984,483.8,483.65,-696,16400,-1976,1,0,0
61202,89983,483.89,483.65,-732,16444,-1852,1,0,0
61248,89983,483.89,483.66,-672,16408,-1756,1,0,0
61282,89984,483.8,483.66,-684,16536,-1832,1,0,0
61316,89984,483.8,483.66,-748,16524,-1916,1,0,0
61348,89984,483.8,483.66,-824,16472,-1944,1,0,0
61382,89984,483.8,483.66,-736,16416,-1800,1,0,0
61416,89984,483.8,483.66,-712,16504,-1964,1,0,0
61454,89984,483.8,483.66,-768,16416,-1824,1,0,0
61488,89984,483.8,483.66,-716,16392,-1840,1,0,0
61521,89983,483.89,483.66,-696,16464,-1852,1,0,0
61555,89983,483.89,483.66,-780,16452,-2032,1,0,0
61589,89982,483.98,483.66,-832,16508,-1788,1,0,0
61623,89982,483.98,483.66,-688,16568,-1880,1,0,0
61656,89982,483.98,483.66,-752,16444,-1948,1,0,0
61689,89983,483.89,483.67,-676,16416,-1996,1,0,0
61723,89983,483.89,483.67,-816,16512,-1956,1,0,0
61757,89983,483.89,483.67,-652,16496,-1980,1,0,0
61795,89983,483.89,483.67,-756,16388,-1916,1,0,0
61829,89982,483.98,483.67,-608,16496,-1896,1,0,0
61862,89982,483.98,483.67,-720,16472,-1988,1,0,0
61895,89982,483.98,483.67,-788,16428,-1952,1,0,0
61929,89982,483.98,483.67,-720,16420,-1948,1,0,0
61963,89982,483.98,483.67,-728,16444,-2000,1,0,0
61997,89982,483.98,483.68,-724,16508,-1876,1,0,0
62030,89982,483.98,483.68,-596,16468,-1892,1,0,0
62064,89982,483.98,483.68,-696,16480,-1880,1,0,0
62098,89982,483.98,483.68,-692,16464,-1940,1,0,0
62135,89982,483.98,483.68,-624,16412,-1988,1,0,0
62169,89982,483.98,483.68,-888,16352,-1860,1,0,0
62202,89982,483.98,483.68,-764,16464,-2088,1,0,0
62236,89983,483.89,483.68,-592,16516,-1832,1,0,0
62270,89983,483.89,483.68,-600,16472,-1820,1,0,0
62304,89983,483.89,483.69,-832,16448,-1812,1,0,0
62338,89983,483.89,483.69,-744,16456,-1680,1,0,0
62371,89983,483.89,483.69,-548,16448,-1824,1,0,0
62404,89983,483.89,483.69,-820,16380,-1904,1,0,0
62442,89983,483.89,483.69,-768,16432,-1952,1,0,0
62476,89983,483.89,483.69,-748,16548,-1924,1,0,0
62510,89983,483.89,483.69,-760,16432,-1856,1,0,0
62543,89983,483.89,483.69,-796,16504,-1924,1,0,0
62577,89983,483.89,483.69,-724,16472,-1832,1,0,0
62610,89982,483.98,483.69,-688,16432,-1824,1,0,0
62644,89982,483.98,483.69,-692,16444,-1900,1,0,0
62678,89982,483.98,483.7,-756,16500,-1988,1,0,0
62711,89981,484.07,483.7,-784,16380,-1884,1,0,0
62745,89981,484.07,483.7,-568,16544,-2008,1,0,0
62782,89981,484.07,483.7,-756,16448,-1848,1,0,0
62816,89981,484.07,483.7,-608,16480,-1936,1,0,0
62850,89981,484.07,483.7,-696,16456,-1896,1,0,0
62883,89981,484.07,483.7,-688,16536,-1888,1,0,0
62917,89980,484.16,483.71,-736,16464,-2012,1,0,0
62960,89980,484.16,483.71,-672,16420,-1840,1,0,0
62994,89981,484.07,483.71,-740,16496,-1900,1,0,0
63028,89980,484.16,483.71,-592,16416,-1860,1,0,0
63060,89980,484.16,483.71,-728,16524,-1832,1,0,0
63094,89980,484.16,483.72,-760,16416,-1904,1,0,0
63143,89980,484.16,483.72,-652,16476,-1880,1,0,0
63177,89980,484.16,483.72,-688,16456,-1956,1,0,0
63211,89980,484.16,483.72,-772,16452,-1840,1,0,0
63245,89981,484.07,483.72,-732,16444,-1920,1,0,0
63279,89981,484.07,483.72,-608,16540,-2012,1,0,0
63312,89981,484.07,483.73,-720,16440,-1868,1,0,0
63345,89981,484.07,483.73,-700,16444,-1860,1,0,0
63379,89981,484.07,483.73,-568,16492,-1952,1,0,0
63413,89982,483.98,483.73,-668,16492,-1900,1,0,0
63451,89981,484.07,483.73,-632,16444,-1964,1,0,0
63484,89981,484.07,483.73,-720,16520,-1992,1,0,0
63517,89982,483.98,483.73,-724,16432,-1896,1,0,0
63551,89981,484.07,483.74,-668,16476,-1920,1,0,0
63585,89981,484.07,483.74,-716,16432,-1900,1,0,0
63619,89982,483.98,483.74,-768,16480,-1768,1,0,0
63652,89982,483.98,483.74,-576,16508,-2000,1,0,0
63686,89981,484.07,483.74,-624,16444,-1932,1,0,0
63720,89982,483.98,483.74,-720,16492,-1876,1,0,0
63754,89982,483.98,483.74,-832,16324,-1816,1,0,0
63791,89982,484.07,483.74,-672,16548,-1944,1,0,0
63824,89982,483.98,483.75,-608,16468,-2076,1,0,0
63858,89981,484.07,483.75,-676,16388,-1784,1,0,0
63892,89981,484.07,483.75,-792,16516,-1980,1,0,0
63926,89981,484.07,483.75,-732,16488,-1880,1,0,0
63959,89981,484.07,483.75,-660,16488,-1844,1,0,0
63992,89981,484.07,483.75,-696,16420,-1816,1,0,0
64026,89980,484.16,483.75,-688,16456,-1944,1,0,0
64060,89981,484.07,483.76,-784,16536,-1828,1,0,0
64094,89980,484.16,483.76,-696,16472,-1792,1,0,0
64131,89980,484.16,483.76,-772,16496,-1980,1,0,0
64164,89980,484.16,483.76,-620,16464,-1928,1,0,0
64198,89980,484.16,483.76,-764,16480,-1948,1,0,0
64232,89980,484.16,483.77,-712,16564,-2008,1,0,0
64266,89981,484.07,483.77,-656,16444,-1964,1,0,0
64300,89981,484.07,483.77,-748,16604,-1820,1,0,0
64332,89981,484.07,483.77,-700,16428,-1896,1,0,0
64366,89982,483.98,483.77,-712,16456,-1936,1,0,0
64400,89982,483.98,483.77,-764,16456,-1896,1,0,0
64438,89981,484.07,483.77,-804,16464,-2020,1,0,0
64471,89981,484.07,483.77,-984,16460,-1860,1,0,0
64504,89981,484.07,483.78,-620,16504,-1820,1,0,0
64538,89982,483.98,483.78,-720,16504,-1852,1,0,0
64572,89982,483.98,483.78,-660,16488,-2004,1,0,0
64606,89981,484.07,483.78,-800,16432,-1816,1,0,0
64640,89982,483.98,483.78,-752,16344,-1792,1,0,0
64672,89982,483.98,483.78,-664,16460,-1824,1,0,0
64706,89981,484.07,483.78,-792,16416,-1760,1,0,0
64740,89981,484.07,483.78,-764,16400,-1964,1,0,0
64778,89982,483.98,483.78,-768,16524,-1896,1,0,0
64811,89981,484.07,483.79,-752,16448,-1884,1,0,0
64844,89981,484.07,483.79,-660,16624,-1968,1,0,0
64878,89981,484.07,483.79,-744,16432,-1944,1,0,0
64921,89980,484.16,483.79,-724,16492,-1852,1,0,0
64954,89980,484.16,483.79,-692,16516,-1896,1,0,0
64988,89980,484.16,483.79,-692,16420,-1844,1,0,0
65021,89980,484.16,483.8,-712,16352,-1812,1,0,0
65067,89981,484.07,483.8,-724,16452,-1908,1,0,0
65100,89981,484.07,483.8,-612,16428,-1920,1,0,0
65138,89981,484.07,483.8,-700,16512,-1876,1,0,0
65171,89982,483.98,483.8,-708,16348,-1928,1,0,0
65205,89982,483.98,483.8,-684,16412,-1952,1,0,0
65239,89982,483.98,483.8,-668,16448,-1844,1,0,0
65272,89982,483.98,483.8,-692,16440,-1784,1,0,0
65306,89983,483.89,483.8,-692,16448,-1908,1,0,0
65339,89983,483.89,483.8,-656,16432,-1824,1,0,0
65373,89982,483.98,483.8,-632,16456,-1872,1,0,0
65406,89982,483.98,483.81,-760,16420,-1888,1,0,0
65444,89983,483.89,483.81,-632,16452,-1928,1,0,0
65477,89983,483.89,483.81,-580,16448,-1956,1,0,0
65511,89983,483.89,483.81,-772,16504,-1864,1,0,0
65545,89984,483.8,483.81,-712,16464,-1896,1,0,0
65579,89984,483.8,483.81,-644,16452,-1928,1,0,0
65612,89984,483.8,483.81,-696,16436,-1844,1,0,0
65646,89984,483.8,483.81,-720,16536,-1896,1,0,0
65679,89984,483.8,483.81,-768,16432,-1756,1,0,0
65713,89983,483.89,483.81,-656,16520,-1780,1,0,0
65746,89983,483.89,483.81,-804,16540,-1848,1,0,0
65784,89984,483.8,483.81,-660,16452,-1952,1,0,0
65817,89984,483.8,483.81,-752,16412,-1952,1,0,0
65851,89983,483.89,483.81,-600,16472,-1924,1,0,0
65885,89983,483.89,483.81,-780,16492,-1860,1,0,0
65918,89983,483.89,483.81,-716,16468,-1960,1,0,0
65952,89983,483.89,483.81,-768,16488,-1984,1,0,0
65985,89983,483.89,483.81,-756,16520,-1796,1,0,0
66019,89983,483.89,483.81,-816,16404,-1876,1,0,0
66053,89983,483.89,483.81,-688,16440,-1896,1,0,0
66086,89983,483.89,483.81,-724,16412,-1872,1,0,0
66123,89984,483.89,483.81,-688,16464,-2060,1,0,0
66157,89984,483.8,483.81,-724,16432,-1848,1,0,0
66191,89984,483.8,483.81,-728,16504,-1836,1,0,0
66225,89985,483.7,483.81,-772,16420,-1848,1,0,0
66257,89984,483.8,483.81,-768,16476,-2020,1,0,0
66291,89985,483.7,483.81,-808,16556,-1964,1,0,0
66325,89984,483.8,483.81,-716,16572,-1972,1,0,0
66359,89984,483.8,483.81,-700,16424,-1760,1,0,0
66393,89984,483.8,483.81,-800,16500,-1932,1,0,0
66429,89984,483.8,483.81,-816,16368,-1780,1,0,0
66463,89984,483.8,483.81,-660,16400,-1880,1,0,0
66497,89984,483.8,483.81,-804,16396,-1952,1,0,0
66531,89984,483.8,483.81,-704,16404,-2004,1,0,0
66564,89984,483.8,483.81,-708,16416,-1704,1,0,0
66597,89985,483.7,483.81,-676,16488,-1800,1,0,0
66631,89985,483.7,483.81,-644,16496,-1720,1,0,0
66665,89985,483.7,483.81,-736,16504,-1828,1,0,0
66699,89985,483.7,483.81,-668,16428,-1832,1,0,0
66732,89985,483.7,483.81,-784,16440,-1744,1,0,0
66769,89985,483.7,483.81,-704,16460,-1856,1,0,0
66803,89985,483.7,483.81,-652,16552,-1936,1,0,0
66845,89986,483.61,483.8,-716,16480,-1948,1,0,0
66879,89985,483.7,483.8,-644,16440,-1912,1,0,0
66913,89985,483.7,483.8,-740,16420,-1860,1,0,0
66946,89985,483.7,483.8,-712,16372,-1864,1,0,0
66992,89986,483.61,483.8,-636,16372,-2032,1,0,0
67024,89985,483.7,483.8,-724,16508,-1976,1,0,0
67058,89985,483.7,483.8,-620,16436,-1812,1,0,0
67092,89985,483.7,483.8,-684,16412,-1936,1,0,0
67129,89984,483.8,483.8,-620,16480,-1880,1,0,0
67163,89984,483.8,483.8,-656,16500,-1936,1,0,0
67195,89985,483.7,483.8,-816,16456,-1936,1,0,0
67229,89985,483.7,483.8,-648,16488,-1832,1,0,0
67262,89985,483.7,483.8,-712,16500,-1908,1,0,0
67296,89985,483.7,483.8,-740,16448,-1888,1,0,0
67330,89984,483.8,483.8,-708,16416,-1784,1,0,0
67362,89984,483.8,483.8,-688,16416,-1932,1,0,0
67396,89984,483.8,483.8,-676,16544,-2008,1,0,0
67433,89984,483.8,483.8,-696,16464,-1828,1,0,0
67466,89984,483.8,483.8,-768,16468,-1888,1,0,0
67500,89984,483.8,483.8,-772,16348,-1824,1,0,0
67532,89984,483.8,483.8,-720,16448,-1900,1,0,0
67566,89984,483.8,483.8,-652,16496,-1896,1,0,0
67600,89984,483.8,483.8,-776,16512,-1892,1,0,0
67633,89984,483.8,483.8,-776,16384,-1940,1,0,0
67666,89984,483.8,483.8,-612,16488,-1884,1,0,0
67699,89984,483.8,483.8,-680,16500,-1964,1,0,0
67733,89984,483.8,483.8,-840,16528,-1816,1,0,0
67770,89985,483.7,483.8,-672,16436,-1888,1,0,0
67804,89985,483.7,483.8,-656,16552,-2052,1,0,0
67837,89984,483.8,483.8,-728,16524,-1968,1,0,0
67871,89983,483.89,483.8,-648,16424,-1912,1,0,0
67905,89983,483.89,483.8,-712,16464,-1892,1,0,0
67939,89984,483.8,483.8,-832,16440,-1940,1,0,0
67973,89984,483.8,483.8,-692,16468,-1800,1,0,0
68006,89984,483.8,483.8,-620,16396,-1976,1,0,0
68040,89984,483.8,483.8,-768,16468,-1892,1,0,0
68074,89984,483.8,483.8,-700,16408,-1904,1,0,0
68112,89983,483.89,483.8,-716,16444,-1912,1,0,0
68146,89983,483.89,483.8,-632,16484,-1912,1,0,0
68179,89983,483.89,483.8,-752,16508,-1768,1,0,0
68213,89983,483.89,483.8,-712,16484,-1884,1,0,0
68247,89983,483.89,483.8,-644,16432,-1876,1,0,0
68281,89984,483.8,483.8,-692,16524,-1780,1,0,0
68315,89984,483.8,483.8,-772,16424,-2016,1,0,0
68347,89984,483.8,483.8,-712,16484,-1936,1,0,0
68381,89984,483.8,483.8,-764,16412,-1832,1,0,0
68419,89984,483.8,483.8,-752,16400,-1852,1,0,0
68453,89984,483.8,483.8,-700,16324,-1792,1,0,0
68487,89984,483.8,483.8,-696,16524,-1784,1,0,0
68520,89984,483.8,483.8,-708,16476,-1752,1,0,0
68554,89984,483.8,483.8,-672,16392,-1932,1,0,0
68588,89984,483.8,483.8,-780,16452,-1916,1,0,0
68622,89984,483.8,483.8,-680,16488,-1748,1,0,0
68656,89984,483.8,483.8,-764,16436,-1860,1,0,0
68689,89984,483.8,483.8,-700,16460,-1924,1,0,0
68723,89983,483.89,483.8,-716,16456,-1992,1,0,0
68760,89984,483.8,483.8,-740,16516,-1780,1,0,0
68803,89984,483.8,483.8,-788,16472,-1992,1,0,0
68837,89984,483.8,483.8,-816,16400,-1856,1,0,0
68883,89984,483.8,483.8,-764,16504,-1996,1,0,0
68917,89984,483.8,483.8,-672,16508,-1832,1,0,0
68951,89984,483.8,483.8,-760,16528,-1880,1,0,0
68984,89984,483.8,483.8,-728,16560,-1884,1,0,0
69018,89984,483.8,483.8,-752,16460,-1868,1,0,0
69052,89984,483.8,483.8,-724,16548,-1868,1,0,0
69086,89984,483.8,483.8,-728,16412,-2064,1,0,0
69123,89985,483.7,483.8,-684,16448,-1904,1,0,0
69156,89985,483.7,483.8,-620,16384,-1904,1,0,0
69190,89985,483.7,483.8,-772,16476,-2032,1,0,0
69224,89985,483.7,483.8,-736,16496,-2084,1,0,0
69258,89985,483.7,483.8,-704,16460,-1932,1,0,0
69292,89985,483.7,483.8,-680,16504,-1892,1,0,0
69325,89985,483.7,483.8,-664,16460,-1856,1,0,0
69359,89985,483.7,483.8,-740,16280,-1936,1,0,0
69393,89985,483.7,483.8,-692,16524,-2024,1,0,0
69431,89986,483.61,483.8,-676,16388,-1896,1,0,0
69465,89986,483.61,483.8,-724,16568,-2028,1,0,0
69498,89985,483.7,483.8,-584,16448,-1928,1,0,0
69532,89985,483.7,483.8,-784,16456,-1788,1,0,0
69565,89985,483.7,483.8,-676,16560,-1944,1,0,0
69599,89986,483.61,483.8,-744,16408,-1892,1,0,0
69633,89986,483.61,483.79,-680,16528,-1884,1,0,0
69666,89986,483.61,483.79,-660,16448,-1904,1,0,0
69700,89986,483.61,483.79,-812,16544,-1840,1,0,0
69734,89985,483.7,483.79,-760,16444,-1908,1,0,0
69772,89985,483.7,483.79,-672,16432,-1892,1,0,0
69806,89985,483.7,483.79,-768,16396,-1912,1,0,0
69839,89985,483.7,483.79,-692,16516,-2040,1,0,0
69873,89985,483.7,483.79,-728,16496,-1760,1,0,0
69907,89986,483.61,483.79,-684,16480,-1904,1,0,0
69941,89985,483.7,483.79,-740,16472,-1992,1,0,0
69975,89985,483.7,483.79,-736,16476,-1880,1,0,0
70008,89985,483.7,483.79,-688,16552,-1960,1,0,0
70042,89985,483.7,483.79,-704,16468,-1824,1,0,0
70076,89986,483.61,483.79,-728,16508,-1792,1,0,0
70113,89986,483.61,483.79,-668,16488,-1924,1,0,0
70147,89986,483.61,483.79,-772,16476,-1972,1,0,0
70180,89986,483.61,483.79,-648,16528,-1944,1,0,0
70214,89986,483.61,483.79,-776,16424,-1828,1,0,0
70248,89986,483.61,483.79,-780,16524,-2028,1,0,0
70282,89986,483.61,483.79,-724,16400,-1956,1,0,0
70316,89986,483.61,483.79,-696,16392,-1964,1,0,0
70349,89986,483.61,483.79,-628,16480,-1732,1,0,0
70383,89986,483.61,483.78,-676,16440,-1836,1,0,0
70421,89986,483.61,483.78,-744,16524,-1892,1,0,0
70454,89986,483.61,483.78,-604,16540,-1860,1,0,0
70488,89986,483.61,483.78,-732,16384,-1872,1,0,0
70521,89985,483.7,483.78,-808,16448,-1948,1,0,0
70555,89985,483.7,483.78,-704,16456,-1832,1,0,0
70589,89985,483.7,483.78,-700,16444,-1872,1,0,0
70623,89985,483.7,483.78,-584,16424,-1880,1,0,0
70657,89985,483.7,483.78,-732,16464,-1896,1,0,0
70690,89986,483.61,483.78,-664,16476,-1904,1,0,0
70724,89986,483.61,483.78,-688,16520,-1848,1,0,0
70782,89986,483.61,483.78,-704,16516,-1904,1,0,0
70816,89986,483.61,483.78,-716,16444,-1756,1,0,0
70850,89986,483.61,483.78,-692,16448,-1932,1,0,0
70884,89986,483.61,483.78,-676,16468,-1816,1,0,0
70918,89986,483.61,483.78,-756,16312,-1928,1,0,0
70951,89986,483.61,483.78,-808,16456,-1952,1,0,0
70985,89986,483.61,483.78,-760,16488,-1820,1,0,0
71019,89986,483.61,483.78,-592,16468,-2000,1,0,0
71053,89986,483.61,483.78,-652,16488,-1952,1,0,0
71087,89986,483.61,483.78,-848,16484,-1928,1,0,0
71124,89986,483.61,483.77,-720,16488,-1884,1,0,0
71158,89985,483.7,483.77,-756,16408,-1892,1,0,0
71192,89985,483.7,483.77,-716,16456,-1848,1,0,0
71225,89985,483.7,483.77,-632,16412,-1816,1,0,0
71259,89985,483.7,483.77,-756,16516,-1920,1,0,0
71292,89985,483.7,483.77,-744,16420,-1832,1,0,0
71326,89985,483.7,483.77,-812,16404,-1916,1,0,0
71360,89985,483.7,483.77,-768,16528,-1800,1,0,0
71394,89984,483.8,483.77,-668,16516,-1844,1,0,0
71432,89984,483.8,483.77,-732,16376,-1880,1,0,0
71465,89984,483.8,483.77,-796,16464,-1840,1,0,0
71499,89983,483.89,483.77,-684,16468,-1948,1,0,0
71533,89983,483.89,483.77,-712,16412,-1912,1,0,0
71567,89983,483.89,483.77,-736,16452,-1852,1,0,0
71600,89983,483.89,483.77,-700,16476,-1880,1,0,0
71633,89984,483.8,483.77,-712,16408,-1912,1,0,0
71667,89984,483.8,483.77,-744,16540,-1848,1,0,0
71701,89984,483.8,483.77,-648,16532,-1876,1,0,0
71735,89983,483.89,483.78,-780,16392,-1824,1,0,0
71773,89983,483.89,483.78,-712,16388,-1848,1,0,0
71806,89984,483.8,483.78,-792,16588,-1892,1,0,0
71840,89984,483.8,483.78,-632,16344,-2016,1,0,0
71874,89984,483.8,483.78,-648,16500,-1832,1,0,0
71907,89984,483.8,483.78,-808,16372,-1784,1,0,0
71941,89984,483.8,483.78,-676,16416,-2000,1,0,0
71974,89985,483.7,483.78,-696,16396,-1900,1,0,0
72008,89985,483.7,483.78,-680,16500,-1896,1,0,0
72042,89985,483.7,483.78,-760,16468,-1852,1,0,0
72076,89985,483.7,483.77,-672,16408,-1872,1,0,0
72114,89985,483.7,483.77,-752,16488,-1856,1,0,0
72147,89984,483.8,483.77,-728,16556,-1844,1,0,0
72181,89984,483.8,483.77,-568,16200,-1956,1,0,0
72215,89984,483.8,483.77,-436,16596,-2476,1,0,0
72248,89985,483.7,483.77,-768,16448,-1848,1,0,0
72282,89984,483.8,483.77,-584,16300,-1712,1,0,0
72315,89984,483.8,483.77,-956,16408,-1600,1,0,0
72349,89984,483.8,483.77,-764,16432,-1776,1,0,0
72383,89984,483.8,483.77,-556,16388,-2012,1,0,0
72421,89985,483.7,483.77,-696,16428,-1976,1,0,0
72455,89985,483.7,483.77,-484,16452,-2092,1,0,0
72488,89985,483.7,483.77,-732,16488,-1884,1,0,0
72522,89985,483.7,483.77,-724,16444,-1948,1,0,0
72555,89986,483.61,483.77,-728,16476,-1908,1,0,0
72589,89986,483.61,483.77,-864,16412,-1780,1,0,0
72623,89985,483.7,483.77,-716,16712,-1812,1,0,0
72656,89985,483.7,483.77,-580,16452,-1760,1,0,0
72712,89985,483.7,483.77,-692,16480,-2052,1,0,0
72745,89985,483.7,483.77,-784,16392,-1876,1,0,0
72782,89985,483.7,483.77,-748,16480,-1948,1,0,0
72816,89985,483.7,483.77,-696,16468,-1852,1,0,0
72850,89985,483.7,483.77,-604,16456,-2016,1,0,0
72884,89985,483.7,483.77,-612,16444,-1964,1,0,0
72918,89985,483.7,483.77,-792,16532,-2004,1,0,0
72951,89985,483.7,483.77,-660,16436,-1844,1,0,0
72985,89985,483.7,483.77,-900,16484,-1740,1,0,0
73019,89985,483.7,483.77,-824,16472,-1684,1,0,0
73053,89985,483.7,483.77,-612,16476,-2028,1,0,0
73085,89985,483.7,483.77,-884,16300,-1796,1,0,0
73123,89985,483.7,483.77,-688,16456,-1896,1,0,0
73157,89985,483.7,483.77,-660,16480,-1880,1,0,0
73191,89985,483.7,483.77,-1312,16516,-1560,1,0,0
73225,89985,483.7,483.77,-624,16132,-1256,1,0,0
73259,89985,483.7,483.77,-804,16652,-2304,1,0,0
73292,89985,483.7,483.77,-1828,16368,-896,1,0,0
73326,89985,483.7,483.77,-2952,16596,724,1,0,0
73359,89985,483.7,483.77,-2024,16408,-648,1,0,0
73393,89985,483.7,483.77,-220,16420,-2352,1,0,0
73431,89986,483.61,483.77,-764,16400,-1936,1,0,0
73464,89986,483.61,483.77,-608,16544,-2112,1,0,0
73498,89985,483.7,483.77,-832,16412,-1924,1,0,0
73532,89985,483.7,483.77,-712,16352,-1872,1,0,0
73565,89985,483.7,483.77,-668,16404,-1904,1,0,0
73598,89985,483.7,483.77,-672,16396,-1908,1,0,0
73632,89985,483.7,483.77,-712,16460,-1912,1,0,0
73666,89985,483.7,483.77,-756,16492,-1920,1,0,0
73700,89985,483.7,483.77,-664,16472,-1864,1,0,0
73734,89985,483.7,483.77,-748,16440,-1804,1,0,0
73772,89985,483.7,483.77,-768,16440,-1736,1,0,0
73804,89984,483.8,483.77,-544,16480,-1936,1,0,0
73838,89984,483.8,483.77,-816,16524,-3100,1,0,0
73872,89984,483.8,483.77,-552,16672,-2288,1,0,0
73906,89984,483.8,483.77,2124,15788,-2148,1,0,0
73939,89985,483.7,483.77,2244,16132,-3520,1,0,0
73973,89985,483.7,483.77,-3764,17756,1188,1,0,0
74007,89985,483.7,483.77,-1580,16756,-1604,1,0,0
74041,89985,483.7,483.77,-724,16352,-1908,1,0,0
74075,89985,483.7,483.77,-448,16504,-1876,1,0,0
74105,89984,483.8,483.77,-188,16400,-1792,1,0,0
74139,89985,483.7,483.77,-1524,16540,-1980,1,0,0
74173,89985,483.7,483.77,-160,16272,-2108,1,0,0
74207,89985,483.7,483.76,-624,16528,-1708,1,0,0
74241,89986,483.61,483.76,-2080,15512,-2160,1,0,0
74273,89985,483.7,483.76,320,16788,-4148,1,0,0
74307,89985,483.7,483.76,-1412,17224,-1676,1,0,0
74341,89985,483.7,483.76,-1724,17668,-2244,1,0,0
74375,89985,483.7,483.76,-720,16392,-2384,1,0,0
74413,89985,483.7,483.76,-1164,16232,-1700,1,0,0
74446,89985,483.7,483.76,-668,17316,-1748,1,0,0
74480,89985,483.7,483.76,-640,18680,804,1,0,0
74513,89986,483.61,483.76,-560,18328,1960,1,0,0
74547,89986,483.61,483.76,-1044,16924,1900,1,0,0
74593,89986,483.61,483.76,-1440,17808,4044,1,0,0
74627,89986,483.61,483.76,-1884,15724,3700,1,0,0
74670,89986,483.61,483.76,-1400,14028,4284,1,0,0
74702,89986,483.61,483.76,-2520,15608,5288,1,0,0
74736,89986,483.61,483.76,-2544,14136,5068,1,0,0
74774,89986,483.61,483.76,-1904,11984,5384,1,0,0
74808,89986,483.61,483.76,-1668,12720,4736,1,0,0
74841,89986,483.61,483.76,-1152,15084,3788,1,0,0
74874,89985,483.7,483.76,-1744,14748,4020,1,0,0
74908,89985,483.7,483.76,-1392,14020,4776,1,0,0
74942,89985,483.7,483.76,-192,15744,3676,1,0,0
74976,89984,483.8,483.76,-280,15120,4032,1,0,0
75010,89984,483.8,483.76,2312,12712,5524,1,0,0
75043,89984,483.8,483.76,2444,15788,4344,1,0,0
75076,89983,483.89,483.76,628,15852,5064,1,0,0
75114,89983,483.89,483.76,-300,14820,7276,1,0,0
75148,89983,483.89,483.76,-360,14908,6864,1,0,0
75181,89983,483.89,483.76,-520,16344,3536,1,0,0
75214,89983,483.89,483.76,-1412,15988,2604,1,0,0
75248,89983,483.89,483.76,-1084,15572,1860,1,0,0
75282,89983,483.89,483.76,-464,16120,948,1,0,0
75316,89983,483.89,483.76,272,16328,-492,1,0,0
75348,89984,483.8,483.76,-964,17692,-816,1,0,0
75382,89984,483.8,483.76,496,16688,-1012,1,0,0
75420,89984,483.8,483.76,88,17660,-2628,1,0,0
75454,89984,483.8,483.76,1148,19308,-4920,1,0,0
75487,89985,483.7,483.76,-408,16088,-2136,1,0,0
75521,89985,483.7,483.76,-3268,16952,1140,1,0,0
75554,89985,483.7,483.76,944,15820,-2732,1,0,0
75588,89985,483.7,483.76,1852,15836,-1832,1,0,0
75622,89985,483.7,483.76,228,17292,1452,1,0,0
75655,89985,483.7,483.76,1024,18204,-8,1,0,0
75688,89985,483.7,483.76,2328,18620,-404,1,0,0
75722,89985,483.7,483.76,400,18616,820,1,0,0
75759,89984,483.8,483.76,828,17420,1048,1,0,0
75793,89985,483.7,483.76,-260,15656,2724,1,0,0
75827,89984,483.8,483.76,1580,14116,2288,1,0,0
75860,89985,483.7,483.76,1948,14576,1160,1,0,0
75893,89985,483.7,483.76,552,17000,-36,1,0,0
75927,89986,483.61,483.76,-1284,18336,-764,1,0,0
75961,89986,483.61,483.76,-1860,17656,-1424,1,0,0
75995,89986,483.61,483.76,-1000,17012,-2128,1,0,0
76028,89986,483.61,483.76,884,16620,-2216,1,0,0
76061,89986,483.61,483.76,480,17000,-1920,1,0,0
76099,89985,483.7,483.76,208,16872,-2044,1,0,0
76133,89985,483.7,483.76,488,17124,-2552,1,0,0
76166,89985,483.7,483.76,460,16128,-2344,1,0,0
76199,89984,483.8,483.76,328,16684,-2124,1,0,0
76233,89984,483.8,483.76,-228,17616,-1512,1,0,0
76267,89983,483.89,483.76,544,18008,-196,1,0,0
76301,89983,483.89,483.76,1436,17524,820,1,0,0
76334,89984,483.8,483.76,2376,15732,636,1,0,0
76367,89983,483.89,483.76,2812,15212,60,1,0,0
76401,89983,483.89,483.76,3396,16260,-724,1,0,0
76438,89982,483.98,483.76,1640,15864,-524,1,0,0
76484,89982,483.98,483.76,316,16936,-612,1,0,0
76518,89982,483.98,483.76,100,17512,-1684,1,0,0
76551,89981,484.07,483.76,-188,18076,-524,1,0,0
76594,89981,484.07,483.76,-332,14836,480,1,0,0
76627,89981,484.07,483.76,-196,14204,572,1,0,0
76660,89981,484.07,483.76,-248,14808,-276,1,0,0
76694,89981,484.07,483.77,752,16916,-380,1,0,0
76728,89982,483.98,483.77,-216,16276,2168,1,0,0
76762,89983,483.89,483.77,284,16320,3140,1,0,0
76798,89983,483.89,483.77,456,14580,3784,1,0,0
76832,89983,483.89,483.77,1880,13528,40,1,0,0
76866,89983,483.89,483.77,3812,15636,252,1,0,0
76899,89983,483.89,483.77,3664,15244,544,1,0,0
76933,89983,483.89,483.77,3312,16072,664,1,0,0
76966,89982,483.98,483.77,-1428,16448,2444,1,0,0
77000,89982,483.98,483.77,204,17988,3088,1,0,0
77033,89982,483.98,483.77,2496,18924,-564,1,0,0
77067,89982,483.98,483.77,240,17380,56,1,0,0
77101,89982,483.98,483.77,1600,22972,3432,1,0,0
77137,89982,483.98,483.77,1936,20592,2288,1,0,0
77171,89982,483.98,483.77,804,18372,3404,1,0,0
77205,89982,483.98,483.77,1292,14948,2736,1,0,0
77238,89982,483.98,483.77,-436,15020,316,1,0,0
77272,89982,483.98,483.77,904,14228,-1368,1,0,0
77305,89982,483.98,483.77,1440,15560,-224,1,0,0
77338,89982,483.98,483.77,2356,14732,-1424,1,0,0
77372,89982,483.98,483.78,1824,15460,-1748,1,0,0
77406,89981,484.07,483.78,1616,15248,-2488,1,0,0
77440,89981,484.07,483.78,1584,14856,-1876,1,0,0
77476,89980,484.16,483.78,2132,14628,332,1,0,0
77510,89980,484.16,483.78,3456,14372,-2668,1,0,0
77544,89981,484.07,483.78,4252,14260,-9588,1,0,0
77578,89981,484.07,483.78,3712,15048,-8140,1,0,0
77611,89981,484.07,483.78,2824,16600,-5032,1,0,0
77644,89981,484.07,483.78,1192,17492,-2316,1,0,0
77678,89981,484.07,483.78,744,19900,-1108,1,0,0
77712,89981,484.07,483.78,1812,16028,-12,1,0,0
77745,89981,484.07,483.78,432,15980,584,1,0,0
77778,89981,484.07,483.79,-224,16460,-2428,1,0,0
77815,89981,484.07,483.79,2756,18748,-2896,1,0,0
77849,89980,484.16,483.79,2812,18712,-1068,1,0,0
77882,89980,484.16,483.79,320,14072,596,1,0,0
77916,89980,484.16,483.79,-544,16148,-1708,1,0,0
77948,89980,484.16,483.79,-604,19100,-1300,1,0,0
77982,89980,484.16,483.79,500,16732,328,1,0,0
78015,89980,484.16,483.79,904,13644,1340,1,0,0
78049,89980,484.16,483.79,1636,16176,2204,1,0,0
78083,89980,484.16,483.8,1404,14620,1160,1,0,0
78203,89980,484.16,483.8,1952,16436,-788,1,0,0
78237,89980,484.16,483.8,2676,18228,-976,1,0,0
78270,89980,484.16,483.8,2108,18980,248,1,0,0
78304,89980,484.16,483.8,1920,19516,2836,1,0,0
78337,89980,484.16,483.8,2076,17408,956,1,0,0
78370,89981,484.07,483.8,2304,17824,836,1,0,0
78404,89981,484.07,483.8,2724,17736,-240,1,0,0
78437,89981,484.07,483.8,464,17328,1008,1,0,0
78483,89981,484.07,483.8,336,15392,2676,1,0,0
78517,89981,484.07,483.8,1848,14632,2568,1,0,0
78554,89981,484.07,483.81,1620,15164,992,1,0,0
78597,89981,484.07,483.81,3024,19948,-2508,1,0,0
78630,89981,484.07,483.81,1948,17648,-1632,1,0,0
78664,89981,484.07,483.81,872,18396,56,1,0,0
78698,89980,484.16,483.81,1576,20100,124,1,0,0
78732,89980,484.16,483.81,1472,14872,-2668,1,0,0
78766,89980,484.16,483.81,2504,16208,-6340,1,0,0
78799,89980,484.16,483.81,4132,19848,-4008,1,0,0
78833,89980,484.16,483.81,5040,13448,-4512,1,0,0
78867,89979,484.26,483.81,4676,19600,-2892,1,0,0
78904,89979,484.26,483.82,5688,16216,-2540,1,0,0
78939,89979,484.26,483.82,4868,18164,-1580,1,0,0
78972,89978,484.26,483.82,2168,17116,52,1,0,0
79005,89978,484.35,483.82,1168,18072,2872,1,0,0
79039,89978,484.35,483.82,264,14548,1988,1,0,0
79073,89978,484.35,483.82,1592,16960,-264,1,0,0
79107,89977,484.45,483.83,3904,15832,1912,1,0,0
79140,89977,484.45,483.83,3184,14868,7408,1,0,0
79174,89977,484.45,483.83,3252,14312,7536,1,0,0
79208,89977,484.45,483.83,1908,11796,4536,1,0,0
79246,89977,484.45,483.83,1504,11928,3636,1,0,0
79280,89977,484.45,483.84,144,10412,7300,1,0,0
79313,89977,484.45,483.84,-1096,12108,5348,1,0,0
79347,89976,484.54,483.84,-952,13928,3384,1,0,0
79381,89976,484.54,483.84,2820,15644,5108,1,0,0
79415,89976,484.54,483.85,5068,11164,5428,1,0,0
79449,89977,484.45,483.85,4788,13048,4660,1,0,0
79482,89977,484.45,483.85,3060,13412,4300,1,0,0
79516,89977,484.45,483.85,3304,16212,380,1,0,0
79550,89978,484.35,483.85,5364,15616,-1832,1,0,0
79588,89978,484.35,483.86,3752,13212,3468,1,0,0
79622,89979,484.26,483.86,3112,15168,4068,1,0,0
79655,89979,484.26,483.86,3716,18828,3632,1,0,0
79688,89979,484.26,483.86,3668,14852,4604,1,0,0
79722,89979,484.26,483.86,2984,15804,5380,1,0,0
79756,89978,484.35,483.86,2904,15656,4908,1,0,0
79790,89978,484.35,483.87,1280,14660,4504,1,0,0
79823,89978,484.35,483.87,1484,15472,3924,1,0,0
79857,89978,484.35,483.87,2796,14120,2952,1,0,0
79891,89978,484.35,483.87,3988,14792,328,1,0,0
79929,89978,484.35,483.87,1436,13916,5876,1,0,0
79963,89978,484.35,483.88,2200,15320,4216,1,0,0
79996,89979,484.26,483.88,1612,14464,2008,1,0,0
80030,89979,484.26,483.88,-1624,15076,4324,1,0,0
80064,89979,484.26,483.88,1192,20952,1992,1,0,0
80098,89979,484.26,483.88,1516,15876,-228,1,0,0
80132,89979,484.26,483.88,-760,15200,2376,1,0,0
80165,89980,484.16,483.88,236,20012,1536,1,0,0
80199,89979,484.26,483.89,2196,19388,560,1,0,0
80233,89979,484.26,483.89,1780,13236,936,1,0,0
80270,89979,484.26,483.89,3104,17920,1020,1,0,0
80304,89980,484.16,483.89,4208,16168,692,1,0,0
80351,89980,484.16,483.89,4148,14292,2056,1,0,0
80385,89980,484.16,483.89,4396,16300,2596,1,0,0
80418,89981,484.07,483.89,4680,16304,2736,1,0,0
80451,89981,484.07,483.89,4156,16444,3916,1,0,0
80485,89981,484.07,483.89,3416,14380,6660,1,0,0
80519,89981,484.07,483.9,5564,16424,6448,1,0,0
80562,89981,484.07,483.9,22848,12020,400,1,0,0
80595,89981,484.07,483.9,6764,16256,3144,1,0,0
80633,89981,484.07,483.9,2304,14788,5592,1,0,0
80667,89981,484.07,483.9,2656,16288,6072,1,0,0
80701,89981,484.07,483.9,928,15340,6108,1,0,0
80734,89981,484.07,483.9,1196,12104,6132,1,0,0
80768,89981,484.07,483.9,7272,14600,6980,1,0,0
80801,89981,484.07,483.9,4976,14620,4380,1,0,0
80835,89981,484.07,483.9,4616,15268,6012,1,0,0
80869,89981,484.07,483.9,5656,15328,5268,1,0,0
80903,89981,484.07,483.9,5116,13236,5604,1,0,0
80941,89982,483.98,483.9,7804,14864,5012,1,0,0
80974,89982,483.98,483.9,7356,12608,4788,1,0,0
81008,89981,484.07,483.9,5896,12020,4388,1,0,0
81042,89981,484.07,483.91,7472,14748,3748,1,0,0
81076,89982,483.98,483.91,6776,14056,5260,1,0,0
81108,89982,483.98,483.91,5960,13660,5976,1,0,0
81142,89982,483.98,483.91,6168,15184,4148,1,0,0
81176,89982,483.98,483.91,5772,14480,5400,1,0,0
81210,89983,483.89,483.91,6268,13820,6140,1,0,0
81244,89983,483.89,483.91,6632,14292,5220,1,0,0
81282,89984,483.8,483.91,5996,14896,6560,1,0,0
81315,89984,483.8,483.91,5468,14288,7428,1,0,0
81349,89984,483.8,483.9,5692,14376,6420,1,0,0
81383,89984,483.8,483.9,6280,14240,6404,1,0,0
81417,89984,483.8,483.9,6812,14036,5584,1,0,0
81449,89984,483.8,483.9,6716,13668,5888,1,0,0
81483,89984,483.8,483.9,7748,13516,6612,1,0,0
81517,89984,483.8,483.9,6760,13028,6360,1,0,0
81551,89984,483.8,483.9,5156,13016,5548,1,0,0
81585,89984,483.8,483.9,5240,13492,5760,1,0,0
81623,89983,483.89,483.9,6136,13012,6096,1,0,0
81656,89983,483.89,483.9,5308,13396,5420,1,0,0
81690,89983,483.89,483.9,4720,13772,4784,1,0,0
81723,89983,483.89,483.9,4664,13564,4888,1,0,0
81757,89983,483.89,483.9,5056,13976,5296,1,0,0
81790,89983,483.89,483.9,5372,13712,6528,1,0,0
81824,89982,483.98,483.9,5524,14252,4464,1,0,0
81858,89983,483.89,483.9,5104,14196,3140,1,0,0
81892,89983,483.89,483.9,5008,14616,3480,1,0,0
81926,89982,483.98,483.9,5204,14440,5068,1,0,0
81964,89982,483.98,483.9,5088,14564,4360,1,0,0
81996,89982,483.98,483.9,4888,14492,3708,1,0,0
82030,89982,483.98,483.9,4864,14272,3828,1,0,0
82064,89982,483.98,483.9,4688,14944,3856,1,0,0
82098,89982,483.98,483.9,4808,15124,5016,1,0,0
82131,89982,483.98,483.9,4960,15172,5752,1,0,0
82165,89982,483.98,483.9,4464,15400,5608,1,0,0
82199,89982,483.98,483.9,4108,15092,5968,1,0,0
82245,89983,483.89,483.9,4628,14588,4856,1,0,0
82279,89983,483.89,483.9,5152,14556,4456,1,0,0
82317,89983,483.89,483.9,5804,14308,5172,1,0,0
82351,89984,483.8,483.9,6004,14136,5128,1,0,0
82384,89984,483.8,483.9,5372,14088,4896,1,0,0
82418,89984,483.8,483.9,5416,14208,4340,1,0,0
82451,89984,483.8,483.9,5524,14176,4948,1,0,0
82494,89984,483.8,483.9,6076,14156,4628,1,0,0
82528,89985,483.7,483.9,5444,14032,3492,1,0,0
82562,89985,483.7,483.9,4736,14416,3888,1,0,0
82595,89985,483.7,483.9,4272,14992,4296,1,0,0
82629,89985,483.7,483.9,3700,15180,4856,1,0,0
82666,89985,483.7,483.9,3172,15584,4780,1,0,0
82700,89985,483.7,483.9,3712,15436,5660,1,0,0
82734,89985,483.7,483.9,4496,15152,5344,1,0,0
82767,89985,483.7,483.9,5328,14992,5440,1,0,0
82801,89985,483.7,483.9,5760,14652,6176,1,0,0
82834,89985,483.7,483.9,5728,14180,5232,1,0,0
82868,89985,483.7,483.89,5428,13964,4908,1,0,0
82902,89985,483.7,483.89,4724,14260,5436,1,0,0
82935,89985,483.7,483.89,4876,14128,5264,1,0,0
82973,89985,483.7,483.89,5068,14300,4964,1,0,0
83007,89985,483.7,483.89,4184,14820,5680,1,0,0
83041,89985,483.7,483.89,3572,14768,5360,1,0,0
83074,89985,483.7,483.89,3412,15316,4960,1,0,0
83107,89985,483.7,483.89,3176,15172,5032,1,0,0
83141,89986,483.61,483.89,2944,15456,4772,1,0,0
83175,89986,483.61,483.89,3168,14656,5492,1,0,0
83209,89986,483.61,483.89,2736,14944,4280,1,0,0
83243,89986,483.61,483.89,2168,15128,3868,1,0,0
83276,89986,483.61,483.88,1800,14996,4612,1,0,0
83313,89985,483.7,483.88,2312,15140,4548,1,0,0
83347,89985,483.7,483.88,2372,14876,4728,1,0,0
83381,89985,483.7,483.88,2228,14860,4816,1,0,0
83415,89985,483.7,483.88,1468,15252,4984,1,0,0
83448,89985,483.7,483.88,932,14920,5104,1,0,0
83482,89985,483.7,483.88,-196,15240,5672,1,0,0
83515,89985,483.7,483.88,-80,15420,5564,1,0,0
83549,89984,483.8,483.88,488,14644,5988,1,0,0
83582,89984,483.8,483.88,172,15452,6024,1,0,0
83616,89983,483.89,483.88,1588,15428,5608,1,0,0
83653,89983,483.89,483.88,2336,15288,4828,1,0,0
83687,89983,483.89,483.88,1564,15748,5276,1,0,0
83721,89984,483.8,483.88,1460,15328,5708,1,0,0
83755,89984,483.8,483.88,1288,15204,4740,1,0,0
83788,89983,483.89,483.88,1300,15228,5316,1,0,0
83822,89983,483.89,483.88,1384,15172,5324,1,0,0
83856,89983,483.89,483.88,1820,15132,5040,1,0,0
83890,89983,483.89,483.88,2144,15384,4492,1,0,0
83922,89983,483.89,483.88,2404,15064,5352,1,0,0
83956,89983,483.89,483.88,1464,14784,5720,1,0,0
83994,89983,483.89,483.88,1356,15064,4860,1,0,0
84028,89982,483.98,483.88,2044,14820,4956,1,0,0
84062,89982,483.98,483.88,1916,14284,5200,1,0,0
84094,89983,483.89,483.88,2040,14648,5012,1,0,0
84142,89983,483.89,483.88,2284,14588,5040,1,0,0
84175,89983,483.89,483.88,1384,14800,5084,1,0,0
84209,89983,483.89,483.88,1248,14400,5348,1,0,0
84242,89982,483.98,483.88,944,14688,5356,1,0,0
84276,89982,483.98,483.88,1384,14640,5992,1,0,0
84310,89983,483.89,483.88,1420,14864,6740,1,0,0
84347,89983,483.89,483.88,1600,14700,6768,1,0,0
84380,89982,483.98,483.88,2448,15120,5704,1,0,0
84414,89981,484.07,483.88,2628,16204,4620,1,0,0
84457,89981,484.07,483.88,2628,15180,6176,1,0,0
84491,89981,484.07,483.88,2072,14088,7552,1,0,0
84525,89981,484.07,483.88,-948,13532,8728,1,0,0
84558,89981,484.07,483.88,-448,14068,6152,1,0,0
84591,89981,484.07,483.88,1448,14428,4448,1,0,0
84625,89981,484.07,483.89,1900,14948,5676,1,0,0
84659,89981,484.07,483.89,1728,15640,5092,1,0,0
84697,89981,484.07,483.89,408,16600,7452,1,0,0
84730,89982,483.98,483.89,-2592,15400,9652,1,0,0
84763,89982,483.98,483.89,-2820,14500,7672,1,0,0
84797,89982,483.98,483.89,-1256,15156,4024,1,0,0
84831,89982,483.98,483.89,-1272,15268,3604,1,0,0
84865,89982,483.98,483.89,-1944,15576,5788,1,0,0
84898,89982,483.98,483.89,-2324,15816,6788,1,0,0
84932,89982,483.98,483.89,-2416,15900,6528,1,0,0
84966,89982,483.98,483.89,-2548,15376,6172,1,0,0
85000,89982,483.98,483.89,-1700,14828,4652,1,0,0
85037,89982,484.07,483.89,-1588,15356,4324,1,0,0
85070,89982,483.98,483.89,-1928,15312,4864,1,0,0
85104,89981,484.07,483.89,-632,14988,1540,1,0,0
85138,89981,484.07,483.89,108,15764,-184,1,0,0
85172,89981,484.07,483.89,-468,15512,1212,1,0,0
85204,89981,484.07,483.89,140,15288,2392,1,0,0
85238,89981,484.07,483.89,456,15484,1920,1,0,0
85272,89981,484.07,483.89,-976,16100,2868,1,0,0
85306,89981,484.07,483.89,-1564,16248,4796,1,0,0
85343,89981,484.07,483.9,-104,16516,3828,1,0,0
85377,89981,484.07,483.9,1044,16140,4340,1,0,0
85410,89981,484.07,483.9,1684,15732,4636,1,0,0
85444,89981,484.07,483.9,288,16060,5288,1,0,0
85478,89981,484.07,483.9,-556,15948,5208,1,0,0
85511,89982,483.98,483.9,296,15400,4752,1,0,0
85544,89982,483.98,483.9,1492,15276,4228,1,0,0
85578,89982,483.98,483.9,1108,14948,4576,1,0,0
85612,89982,483.98,483.9,648,14876,4764,1,0,0
85646,89982,483.98,483.9,684,14928,5012,1,0,0
85683,89982,483.98,483.9,860,15344,5144,1,0,0
85716,89982,483.98,483.9,684,14764,5560,1,0,0
85750,89981,484.07,483.9,728,14572,4968,1,0,0
85783,89981,484.07,483.9,1552,14868,3824,1,0,0
85817,89980,484.16,483.9,1440,15044,4148,1,0,0
85851,89980,484.16,483.9,1292,15584,4128,1,0,0
85884,89980,484.16,483.9,1404,16092,4000,1,0,0
85917,89981,484.07,483.9,1820,16460,4676,1,0,0
85951,89981,484.07,483.9,1208,17192,5896,1,0,0
85985,89981,484.07,483.91,136,17400,7152,1,0,0
86035,89981,484.07,483.91,-1308,16460,6812,1,0,0
86069,89981,484.07,483.91,-300,16212,6504,1,0,0
86103,89981,484.07,483.91,-216,15416,6548,1,0,0
86136,89980,484.16,483.91,336,15252,5760,1,0,0
86169,89980,484.16,483.91,1696,14432,6820,1,0,0
86203,89980,484.16,483.91,1196,13524,7512,1,0,0
86237,89980,484.16,483.91,720,12336,6432,1,0,0
86270,89981,484.07,483.91,1656,12580,3808,1,0,0
86304,89981,484.07,483.91,2092,13440,3548,1,0,0
86337,89980,484.16,483.91,1024,14280,4876,1,0,0
86384,89980,484.16,483.91,920,14540,5092,1,0,0
86417,89980,484.16,483.91,1548,14976,5068,1,0,0
86451,89980,484.16,483.92,2336,14868,4408,1,0,0
86484,89980,484.16,483.92,2264,15072,3264,1,0,0
86518,89979,484.26,483.92,980,15924,3360,1,0,0
86552,89980,484.16,483.92,628,15544,4804,1,0,0
86585,89980,484.16,483.92,676,15820,5084,1,0,0
86619,89980,484.16,483.92,888,15780,4148,1,0,0
86652,89979,484.26,483.92,948,16112,4132,1,0,0
86686,89979,484.26,483.92,648,15796,4440,1,0,0
86723,89980,484.16,483.92,296,16020,4660,1,0,0
86757,89980,484.16,483.92,756,15772,4772,1,0,0
86791,89980,484.16,483.92,920,15820,4192,1,0,0
86823,89981,484.07,483.92,1228,15580,4752,1,0,0
86857,89981,484.07,483.93,928,14528,6140,1,0,0
86891,89981,484.07,483.93,-396,14352,5412,1,0,0
86925,89981,484.07,483.93,-944,15176,4728,1,0,0
86958,89981,484.07,483.93,-1624,15172,4904,1,0,0
86991,89981,484.07,483.93,-844,14792,5448,1,0,0
87025,89982,483.98,483.93,336,15096,4808,1,0,0
87063,89982,483.98,483.93,944,15324,4828,1,0,0
87096,89983,483.89,483.93,772,15644,5580,1,0,0
87130,89983,483.89,483.93,1796,15876,6636,1,0,0
87163,89983,483.89,483.93,1868,15088,7332,1,0,0
87197,89983,483.89,483.93,2388,14328,6484,1,0,0
87230,89983,483.89,483.93,2312,13564,5784,1,0,0
87264,89983,483.89,483.93,308,14620,2868,1,0,0
87298,89983,483.89,483.93,-188,16608,2956,1,0,0
87331,89983,483.89,483.93,716,16100,5324,1,0,0
87365,89983,483.89,483.93,624,15560,6760,1,0,0
87402,89983,483.89,483.93,1316,15464,6488,1,0,0
87436,89983,483.89,483.93,2424,14692,6080,1,0,0
87470,89983,483.89,483.93,1720,14336,5340,1,0,0
87502,89982,483.98,483.93,-284,14976,5356,1,0,0
87536,89982,483.98,483.93,-620,15548,5104,1,0,0
87570,89982,483.98,483.93,1000,15648,4628,1,0,0
87604,89982,483.98,483.93,2236,15932,4748,1,0,0
87638,89983,483.89,483.93,3568,15760,4376,1,0,0
87670,89983,483.89,483.93,3232,15248,4780,1,0,0
87704,89983,483.89,483.93,2556,15188,4564,1,0,0
87742,89983,483.89,483.93,1724,15012,4416,1,0,0
87775,89983,483.89,483.93,2344,14624,3264,1,0,0
87809,89983,483.89,483.93,2976,14540,2596,1,0,0
87842,89983,483.89,483.93,3264,15020,3296,1,0,0
87888,89984,483.8,483.93,2712,15292,4588,1,0,0
87922,89984,483.8,483.93,2780,15356,4148,1,0,0
87956,89984,483.8,483.92,1704,15492,4188,1,0,0
87990,89983,483.89,483.92,1000,15348,4972,1,0,0
88023,89983,483.89,483.92,1152,15724,4172,1,0,0
88056,89983,483.89,483.92,1892,15772,4900,1,0,0
88094,89983,483.89,483.92,1444,15352,5556,1,0,0
88128,89983,483.89,483.92,2216,15404,4824,1,0,0
88161,89983,483.89,483.92,2248,14944,3068,1,0,0
88195,89983,483.89,483.92,7676,14960,-7948,1,0,0
88228,89983,483.89,483.92,340,15540,7140,1,0,0
88262,89983,483.89,483.92,3036,14552,3380,1,0,0
88295,89983,483.89,483.92,2368,15648,3296,1,0,0
88338,89983,483.89,483.92,-240,15412,4388,1,0,0
88372,89983,483.89,483.92,-776,15548,3156,1,0,0
88409,89983,483.89,483.92,-1008,16196,3096,1,0,0
88442,89983,483.89,483.92,512,15228,3268,1,0,0
88476,89984,483.8,483.92,968,15516,3652,1,0,0
88510,89983,483.89,483.92,216,15032,4728,1,0,0
88543,89984,483.8,483.92,520,15484,3912,1,0,0
88577,89984,483.8,483.92,156,15708,3760,1,0,0
88610,89984,483.8,483.92,-272,15104,4564,1,0,0
88643,89984,483.8,483.92,428,14968,4432,1,0,0
88677,89983,483.89,483.92,1156,15156,4372,1,0,0
88711,89983,483.89,483.92,828,14256,6396,1,0,0
88748,89983,483.89,483.92,-540,13328,5384,1,0,0
88781,89983,483.89,483.92,-1652,15080,3596,1,0,0
88814,89983,483.89,483.92,-960,16528,3840,1,0,0
88848,89983,483.89,483.92,644,16604,4808,1,0,0
88881,89983,483.89,483.92,1420,16768,5712,1,0,0
88914,89983,483.89,483.92,-16,16564,6524,1,0,0
88948,89983,483.89,483.92,-1572,16528,6348,1,0,0
88981,89983,483.89,483.92,-1124,15728,4872,1,0,0
89015,89984,483.8,483.92,-396,15932,4980,1,0,0
89048,89983,483.89,483.92,792,15612,4220,1,0,0
89084,89983,483.89,483.92,732,14436,3912,1,0,0
89118,89982,483.98,483.92,576,14788,4428,1,0,0
89152,89982,483.98,483.92,2052,13872,4516,1,0,0
89185,89982,483.98,483.92,2380,14992,4700,1,0,0
89219,89982,483.98,483.92,3232,14964,6804,1,0,0
89251,89983,483.89,483.92,4032,14376,6036,1,0,0
89285,89983,483.89,483.92,2952,14604,5912,1,0,0
89319,89982,483.98,483.92,1704,14304,8716,1,0,0
89352,89983,483.89,483.92,4016,13140,6888,1,0,0
89385,89983,483.89,483.92,2396,15032,5800,1,0,0
89422,89983,483.89,483.92,2504,14776,7080,1,0,0
89456,89983,483.89,483.92,5012,14288,6724,1,0,0
89490,89984,483.8,483.92,3092,14484,5140,1,0,0
89524,89983,483.89,483.92,1188,15300,4720,1,0,0
89558,89983,483.89,483.92,3060,13480,4012,1,0,0
89591,89983,483.89,483.92,2808,13000,2940,1,0,0
89625,89983,483.89,483.92,1196,13600,3436,1,0,0
89659,89983,483.89,483.92,2256,12884,4056,1,0,0
89693,89982,483.98,483.92,1768,11752,3992,1,0,0
89726,89982,483.98,483.92,1672,12240,4108,1,0,0
89778,89982,483.98,483.92,-504,12732,6060,1,0,0
89811,89982,483.98,483.92,-592,14600,6372,1,0,0
89845,89982,483.98,483.92,1884,13364,8388,1,0,0
89879,89982,483.98,483.92,-588,12680,8348,1,0,0
89913,89982,483.98,483.92,-2756,13152,6976,1,0,0
89947,89983,483.89,483.92,1124,12500,4912,1,0,0
89980,89982,483.98,483.92,3084,10952,3520,1,0,0
90014,89983,483.89,483.92,-308,10860,6152,1,0,0
90048,89983,483.89,483.92,1664,8688,6456,1,0,0
90082,89982,483.98,483.92,2116,10584,4044,1,0,0
90120,89983,483.89,483.92,428,13364,6348,1,0,0
90153,89983,483.89,483.92,1000,12552,9272,1,0,0
90186,89984,483.8,483.92,4468,14628,8324,1,0,0
90220,89984,483.8,483.92,3268,15832,9176,1,0,0
90254,89984,483.8,483.92,2408,16336,9960,1,0,0
90297,89984,483.8,483.92,4164,17904,6376,1,0,0
90331,89984,483.8,483.92,4524,17472,6656,1,0,0
90364,89985,483.7,483.92,4860,18484,6056,1,0,0
90398,89985,483.7,483.92,5260,19300,6536,1,0,0
90432,89984,483.8,483.92,5292,18604,8008,1,0,0
90470,89984,483.8,483.92,3860,18956,7364,1,0,0
90504,89984,483.8,483.92,5352,18404,6092,1,0,0
90537,89984,483.8,483.91,4468,18128,6092,1,0,0
90571,89985,483.7,483.91,5604,16508,6068,1,0,0
90605,89985,483.7,483.91,7376,14824,3216,1,0,0
90638,89986,483.61,483.91,6192,18060,3652,1,0,0
90672,89986,483.61,483.91,3048,17120,7568,1,0,0
90705,89986,483.61,483.91,6176,14760,6236,1,0,0
90739,89986,483.61,483.91,7636,17868,2796,1,0,0
90773,89985,483.7,483.91,6276,15844,7192,1,0,0
90811,89986,483.61,483.91,6756,13848,4572,1,0,0
90845,89986,483.61,483.91,6728,14316,640,1,0,0
90878,89985,483.7,483.91,5584,14020,3412,1,0,0
90912,89985,483.7,483.91,5516,12436,5892,1,0,0
90946,89985,483.7,483.91,5968,13820,4044,1,0,0
90980,89986,483.61,483.91,6684,12880,3104,1,0,0
91014,89986,483.61,483.9,6072,13228,3848,1,0,0
91047,89987,483.52,483.9,5172,14256,5236,1,0,0
91081,89987,483.52,483.9,6956,14180,4616,1,0,0
91118,89988,483.43,483.9,5008,15144,4940,1,0,0
91152,89988,483.43,483.9,5860,15592,4296,1,0,0
91186,89989,483.33,483.9,6068,14976,4540,1,0,0
91219,89988,483.43,483.9,5516,15104,7068,1,0,0
91253,89988,483.43,483.89,7804,12400,7504,1,0,0
91287,89988,483.43,483.89,8052,12384,9308,1,0,0
91321,89988,483.43,483.89,5036,12908,10676,1,0,0
91355,89989,483.33,483.89,5968,11940,8648,1,0,0
91388,89989,483.33,483.89,5932,11884,10200,1,0,0
91422,89989,483.33,483.89,5532,11720,8024,1,0,0
91459,89989,483.33,483.88,6356,12532,9692,1,0,0
91493,89989,483.33,483.88,6156,8444,10524,1,0,0
91527,89989,483.33,483.88,4036,12280,9856,1,0,0
91560,89989,483.33,483.88,5708,9408,11604,1,0,0
91594,89989,483.33,483.88,5140,10092,10612,1,0,0
91641,89989,483.33,483.88,3616,9280,10716,1,0,0
91675,89989,483.33,483.87,4196,10540,10716,1,0,0
91709,89989,483.33,483.87,6200,9336,8980,1,0,0
91743,89989,483.33,483.87,7004,9480,7984,1,0,0
91777,89990,483.24,483.87,7072,9616,7700,1,0,0
91814,89990,483.24,483.87,6668,10324,7480,1,0,0
91848,89989,483.33,483.86,7380,10092,9588,1,0,0
91882,89989,483.33,483.86,8360,11756,8128,1,0,0
91915,89989,483.33,483.86,7860,10136,7076,1,0,0
91949,89989,483.33,483.86,8652,10804,7420,1,0,0
91982,89988,483.43,483.86,9168,10772,6632,1,0,0
92016,89987,483.52,483.86,9408,11736,7140,1,0,0
92050,89987,483.52,483.85,9272,11332,6944,1,0,0
92084,89986,483.61,483.85,9420,11800,6836,1,0,0
92118,89986,483.61,483.85,11272,11016,3604,1,0,0
92155,89986,483.61,483.85,8428,11564,7180,1,0,0
92189,89985,483.7,483.85,8796,11736,7612,1,0,0
92232,89985,483.7,483.85,9464,11220,6872,1,0,0
92266,89984,483.8,483.85,9276,11480,7356,1,0,0
92299,89984,483.8,483.85,8696,11768,7720,1,0,0
92333,89984,483.8,483.85,9328,11360,6508,1,0,0
92366,89984,483.8,483.85,9140,11120,6868,1,0,0
92400,89984,483.8,483.85,8980,11164,6880,1,0,0
92434,89984,483.8,483.85,9476,11052,6288,1,0,0
92468,89984,483.8,483.85,9888,11224,6620,1,0,0
92506,89984,483.8,483.85,8672,10008,7604,1,0,0
92539,89983,483.89,483.85,10092,11288,7576,1,0,0
92573,89983,483.89,483.85,9908,11320,6492,1,0,0
92607,89983,483.89,483.85,10788,10144,5816,1,0,0
92640,89983,483.89,483.85,9104,10744,7728,1,0,0
92674,89983,483.89,483.85,9060,11036,7288,1,0,0
92707,89983,483.89,483.85,10588,10192,6252,1,0,0
92741,89982,483.98,483.85,9236,10012,8092,1,0,0
92775,89982,483.98,483.85,8616,10520,8056,1,0,0
92809,89982,483.98,483.85,9116,11224,8260,1,0,0
