Time,Pascal,alt,KMF,ax,ay,az,LaunchTime,ApoTime,LandTime25925,89783.00,502.45,501.31,8704,12800,12260,1,0,0
25959,89784.00,502.36,501.32,-260,-15044,-2292,1,0,0
25993,89784.00,502.36,501.32,132,-12912,-368,1,0,0
26027,89784.00,502.36,501.33,-1376,-10716,-748,1,0,0
26060,89783.00,502.45,501.34,-1956,-10028,-1448,1,0,0
26094,89783.00,502.45,501.34,1904,-9652,1040,1,0,0
26128,89783.00,502.45,501.35,2816,-7944,1768,1,0,0
26162,89783.00,502.45,501.36,1296,-10336,4580,1,0,0
26195,89784.00,502.36,501.36,816,-12828,6964,1,0,0
26232,89784.00,502.36,501.37,-244,-12804,7488,1,0,0
26266,89784.00,502.36,501.38,2736,-13216,6504,1,0,0
26301,89784.00,502.36,501.38,1352,-13672,12380,1,0,0
26335,89785.00,502.26,501.39,3136,-15132,13380,1,0,0
26369,89785.00,502.26,501.39,4484,-22084,12112,1,0,0
26403,89785.00,502.26,501.40,6508,-28360,12560,1,0,0
26437,89786.00,502.17,501.41,7896,-23700,13976,1,0,0
26471,89786.00,502.17,501.41,3764,-21600,10680,1,0,0
26505,89786.00,502.17,501.42,-544,-20188,7812,1,0,0
26540,89787.00,502.08,501.42,-2460,-19212,5956,1,0,0
26577,89787.00,502.08,501.43,-2924,-16732,6720,1,0,0
26611,89788.00,501.98,501.43,-1792,-14884,7280,1,0,0
26645,89788.00,501.98,501.43,-476,-14988,7252,1,0,0
26680,89788.00,501.98,501.44,12,-14480,8340,1,0,0
26714,89788.00,501.98,501.44,176,-13496,8628,1,0,0
26747,89788.00,501.98,501.45,56,-14008,8424,1,0,0
26781,89788.00,501.98,501.45,268,-13976,8232,1,0,0
26815,89788.00,501.98,501.45,724,-13876,8680,1,0,0
26850,89788.00,501.98,501.46,1444,-14208,8180,1,0,0
26888,89788.00,501.98,501.46,1700,-15712,8008,1,0,0
26921,89789.00,501.89,501.46,1556,-19240,7968,1,0,0
26955,89789.00,501.89,501.47,2828,-30432,9932,1,0,0
26989,89790.00,501.80,501.47,1804,-31492,14292,1,0,0
27024,89791.00,501.71,501.47,2656,-26484,15696,1,0,0
27058,89791.00,501.71,501.47,8164,-32768,16580,1,0,0
27091,89791.00,501.71,501.48,1320,-20860,15440,1,0,0
27125,89791.00,501.71,501.48,2556,-10640,9476,1,0,0
27160,89791.00,501.71,501.48,6832,-11140,12152,1,0,0
27203,89790.00,501.80,501.48,304,-9348,7896,1,0,0
27241,89790.00,501.80,501.48,-1008,-7524,5468,1,0,0
27275,89790.00,501.80,501.49,2396,-5132,4876,1,0,0
27309,89790.00,501.80,501.49,2924,-7608,3872,1,0,0
27342,89790.00,501.80,501.49,1016,-7564,-948,1,0,0
27377,89790.00,501.80,501.49,2368,-8112,-308,1,0,0
27411,89790.00,501.80,501.50,3544,-7388,-736,1,0,0
27445,89790.00,501.80,501.50,1116,-9852,-3208,1,0,0
27479,89790.00,501.80,501.50,104,-10952,-3300,1,0,0
27512,89789.00,501.89,501.50,2356,-10544,-1452,1,0,0
27564,89789.00,501.89,501.50,424,-11460,-4516,1,0,0
27601,89789.00,501.89,501.51,1316,-13600,-2472,1,0,0
27635,89789.00,501.89,501.51,276,-13928,-3000,1,0,0
27669,89789.00,501.89,501.51,148,-13452,-5844,1,0,0
27703,89789.00,501.89,501.52,-472,-13620,-5164,1,0,0
27738,89789.00,501.89,501.52,-1364,-14436,-4868,1,0,0
27771,89790.00,501.80,501.52,-2204,-13876,-6020,1,0,0
27805,89790.00,501.80,501.52,-3528,-13124,-7148,1,0,0
27840,89789.00,501.89,501.53,-4792,-12552,-7956,1,0,0
27874,89788.00,501.98,501.53,-4188,-12500,-7328,1,0,0
27912,89788.00,501.98,501.53,-2720,-11536,-5564,1,0,0
27945,89788.00,501.98,501.54,-796,-9708,-5528,1,0,0
27979,89788.00,501.98,501.54,-1304,-9140,-5444,1,0,0
28014,89789.00,501.98,501.54,-1156,-7592,-4720,1,0,0
28048,89789.00,501.89,501.54,-808,-5076,-4588,1,0,0
28082,89789.00,501.89,501.55,1868,-4312,-584,1,0,0
28115,89788.00,501.98,501.55,1528,-5828,596,1,0,0
28150,89789.00,501.89,501.55,448,-7360,1648,1,0,0
28184,89788.00,501.98,501.56,6748,-10864,5036,1,0,0
28218,89788.00,501.98,501.56,3416,-7252,8168,1,0,0
28256,89788.00,501.98,501.56,6992,-16136,2136,1,0,0
28290,89788.00,501.98,501.57,4772,-17328,9280,1,0,0
28323,89788.00,501.98,501.57,2292,-18396,8704,1,0,0
28357,89788.00,501.98,501.57,-588,-29472,8616,1,0,0
28392,89788.00,501.98,501.57,908,-20664,11380,1,0,0
28426,89788.00,501.98,501.58,5720,-28852,9244,1,0,0
28460,89789.00,501.89,501.58,3048,-28976,7280,1,0,0
28493,89789.00,501.89,501.58,5364,-26024,6648,1,0,0
28528,89789.00,501.89,501.58,8616,-28376,7700,1,0,0
28562,89790.00,501.80,501.59,5212,-25412,6016,1,0,0
28600,89789.00,501.89,501.59,1372,-21312,2784,1,0,0
28634,89789.00,501.89,501.59,376,-18856,3732,1,0,0
28667,89789.00,501.89,501.59,-1436,-17600,3536,1,0,0
28701,89789.00,501.89,501.59,-1296,-17112,3984,1,0,0
28736,89789.00,501.89,501.60,172,-15460,5396,1,0,0
28770,89789.00,501.89,501.60,772,-17304,5168,1,0,0
28804,89789.00,501.89,501.60,-324,-15860,4920,1,0,0
28837,89789.00,501.89,501.60,-612,-16000,4256,1,0,0
28871,89789.00,501.89,501.61,-1764,-13896,5656,1,0,0
28909,89789.00,501.89,501.61,-1824,-12816,7956,1,0,0
28944,89789.00,501.89,501.61,-1812,-14256,6120,1,0,0
28978,89788.00,501.98,501.61,580,-16968,4792,1,0,0
29011,89789.00,501.89,501.61,-596,-17688,4520,1,0,0
29045,89789.00,501.89,501.62,1096,-15316,5148,1,0,0
29079,89789.00,501.89,501.62,1188,-16192,2864,1,0,0
29113,89788.00,501.98,501.62,-368,-15460,5104,1,0,0
29148,89789.00,501.89,501.62,1052,-14896,4140,1,0,0
29191,89789.00,501.89,501.62,744,-15220,3596,1,0,0
29224,89789.00,501.89,501.63,-740,-14836,3224,1,0,0
29262,89789.00,501.89,501.63,-2156,-15952,4460,1,0,0
29296,89790.00,501.80,501.63,628,-16148,2760,1,0,0
29330,89790.00,501.80,501.63,348,-15712,2532,1,0,0
29389,89791.00,501.71,501.63,2228,-16988,4684,1,0,0
29423,89791.00,501.71,501.63,5692,-15128,6156,1,0,0
29457,89791.00,501.71,501.63,2876,-15628,3000,1,0,0
29491,89791.00,501.71,501.63,1836,-14756,-552,1,0,0
29526,89791.00,501.71,501.63,1936,-14576,764,1,0,0
29559,89791.00,501.71,501.63,2720,-14244,1532,1,0,0
29593,89791.00,501.71,501.63,1784,-14152,1124,1,0,0
29631,89790.00,501.80,501.64,2448,-13760,956,1,0,0
29665,89791.00,501.80,501.64,420,-14560,1976,1,0,0
29699,89791.00,501.71,501.64,1372,-12664,3288,1,0,0
29732,89790.00,501.80,501.64,7448,-11628,2792,1,0,0
29767,89790.00,501.80,501.64,3584,-14736,4132,1,0,0
29801,89790.00,501.80,501.64,2792,-15552,3144,1,0,0
29835,89790.00,501.80,501.64,1288,-16768,4920,1,0,0
29869,89790.00,501.80,501.64,2080,-17688,1832,1,0,0
29902,89791.00,501.71,501.64,3168,-19636,2996,1,0,0
29940,89791.00,501.71,501.64,1644,-19032,3180,1,0,0
29974,89791.00,501.71,501.64,1832,-17772,1832,1,0,0
30008,89791.00,501.71,501.64,2652,-21740,1784,1,0,0
30043,89791.00,501.71,501.64,4440,-25424,-1396,1,0,0
30076,89791.00,501.71,501.65,2984,-26652,612,1,0,0
30110,89791.00,501.71,501.65,4120,-27604,2664,1,0,0
30144,89791.00,501.71,501.65,3280,-28036,4028,1,0,0
30178,89791.00,501.71,501.65,2948,-27052,4820,1,0,0
30213,89791.00,501.71,501.65,2828,-22940,4916,1,0,0
30246,89791.00,501.71,501.65,3292,-16784,4448,1,0,0
30284,89790.00,501.80,501.65,3336,-11872,4544,1,0,0
30318,89790.00,501.80,501.65,3284,-10648,5008,1,0,0
30352,89789.00,501.89,501.65,1552,-9100,2128,1,0,0
30386,89788.00,501.98,501.65,184,-5492,-660,1,0,0
30419,89788.00,501.98,501.65,1012,-1728,-2548,1,0,0
30453,89788.00,501.98,501.66,800,-1308,-2632,1,0,0
30487,89788.00,501.98,501.66,1520,-5220,-2420,1,0,0
30521,89788.00,501.98,501.66,1280,-6432,-4044,1,0,0
30556,89788.00,501.98,501.66,1124,-9588,-2960,1,0,0
30589,89788.00,501.98,501.66,2324,-11816,-1884,1,0,0
30627,89788.00,501.98,501.67,280,-11732,-3396,1,0,0
30661,89788.00,501.98,501.67,1328,-11276,-4172,1,0,0
30695,89788.00,501.98,501.67,2052,-12604,-4140,1,0,0
30729,89788.00,501.98,501.67,1348,-13820,-4580,1,0,0
30763,89787.00,502.08,501.68,1304,-12776,-3792,1,0,0
30797,89787.00,502.08,501.68,684,-9504,-1488,1,0,0
30831,89787.00,502.08,501.68,832,-11044,-2904,1,0,0
30865,89787.00,502.08,501.68,-60,-9248,-2068,1,0,0
30899,89787.00,502.08,501.68,348,-9436,696,1,0,0
30937,89786.00,502.17,501.69,-684,-9308,2936,1,0,0
30970,89787.00,502.08,501.69,504,-11560,2820,1,0,0
31004,89787.00,502.08,501.69,-2104,-14076,3052,1,0,0
31038,89787.00,502.08,501.70,644,-17208,3084,1,0,0
31072,89788.00,501.98,501.70,-456,-21068,3572,1,0,0
31106,89788.00,501.98,501.70,-532,-21644,4800,1,0,0
31149,89788.00,501.98,501.70,-1812,-22368,4648,1,0,0
31199,89788.00,501.98,501.70,-1756,-21712,3792,1,0,0
31233,89787.00,502.08,501.70,-1344,-20984,5304,1,0,0
31267,89788.00,501.98,501.71,-680,-21260,4556,1,0,0
31304,89788.00,501.98,501.71,-2364,-20920,5308,1,0,0
31339,89788.00,501.98,501.71,-4936,-18552,6024,1,0,0
31373,89787.00,502.08,501.71,-5036,-16752,6376,1,0,0
31407,89788.00,501.98,501.71,-4652,-14396,8028,1,0,0
31440,89787.00,502.08,501.72,-3296,-12932,8580,1,0,0
31474,89787.00,502.08,501.72,-3208,-14820,7768,1,0,0
31509,89787.00,502.08,501.72,-3588,-14736,7968,1,0,0
31543,89787.00,502.08,501.72,-3888,-14268,9144,1,0,0
31577,89787.00,502.08,501.73,-2992,-13324,7148,1,0,0
31614,89788.00,501.98,501.73,-5400,-14776,9416,1,0,0
31648,89788.00,501.98,501.73,-6712,-13792,6860,1,0,0
31682,89788.00,501.98,501.73,-1704,-11868,7196,1,0,0
31716,89787.00,502.08,501.73,-2788,-10904,7072,1,0,0
31750,89787.00,502.08,501.73,-2812,-11908,3964,1,0,0
31784,89788.00,501.98,501.74,76,-9052,10188,1,0,0
31818,89788.00,501.98,501.74,-1180,-12696,5040,1,0,0
31852,89788.00,501.98,501.74,-108,-13504,7048,1,0,0
31886,89788.00,501.98,501.74,8112,-18852,4800,1,0,0
31920,89788.00,501.98,501.74,2040,-17624,10172,1,0,0
31958,89789.00,501.89,501.74,-188,-25740,17780,1,0,0
31991,89789.00,501.89,501.74,-5924,-32768,24980,1,0,0
32025,89789.00,501.89,501.75,1120,-32768,32628,1,0,0
32060,89790.00,501.80,501.75,1440,-32768,32767,1,0,0
32094,89791.00,501.71,501.75,-2252,-32768,32767,1,0,0
32128,89791.00,501.71,501.75,-32768,-32768,32767,1,0,0
32161,89793.00,501.52,501.74,-32768,-30760,32767,1,0,0
32196,89780.00,502.73,501.75,-32768,-5956,32767,1,0,0
32230,89758.00,504.77,501.77,1192,32767,32767,1,0,0
32268,89741.00,506.35,501.80,2308,13060,-32568,1,0,0
32302,89726.00,507.74,501.84,-6640,17664,-23748,1,0,0
32335,89716.00,508.67,501.90,-2384,15152,-17128,1,0,0
32369,89711.00,509.14,501.96,-3968,14752,-11496,1,0,0
32403,89709.00,509.32,502.04,-7856,13940,-9216,1,0,0
32437,89709.00,509.32,502.13,-10736,13324,-12100,1,0,0
32472,89709.00,509.32,502.23,-11896,10280,-15312,1,0,0
32505,89710.00,509.23,502.33,-8480,5980,-19116,1,0,0
32539,89710.00,509.23,502.45,-4220,1412,-19040,1,0,0
32573,89711.00,509.14,502.58,-1612,-3732,-17012,1,0,0
32611,89714.00,508.86,502.71,-1844,-7508,-12636,1,0,0
32645,89716.00,508.67,502.85,-5716,-8068,-10224,1,0,0
32679,89718.00,508.49,503.00,-9756,-5296,-11820,1,0,0
32713,89718.00,508.49,503.15,-10824,-272,-14536,1,0,0
32747,89721.00,508.21,503.30,-9428,4944,-15884,1,0,0
32781,89724.00,507.93,503.45,-6908,10152,-15712,1,0,0
32815,89727.00,507.65,503.59,-5504,14340,-14492,1,0,0
32849,89728.00,507.56,503.73,-5604,16496,-11988,1,0,0
32883,89731.00,507.28,503.86,-7400,17016,-10924,1,0,0
32921,89732.00,507.19,503.99,-8744,15116,-11828,1,0,0
32955,89733.00,507.09,504.11,-8720,11336,-13928,1,0,0
33005,89733.00,507.09,504.23,-5472,3820,-16496,1,0,0
33039,89732.00,507.19,504.34,-2648,-1392,-15700,1,0,0
33073,89730.00,507.19,504.46,-1644,-5584,-13680,1,0,0
33117,89729.00,507.47,504.58,-3400,-8232,-10928,1,0,0
33150,89728.00,507.56,504.71,-6120,-7568,-10320,1,0,0
33184,89728.00,507.56,504.83,-8472,-4404,-11580,1,0,0
33218,89729.00,507.47,504.94,-9088,492,-13368,1,0,0
33256,89729.00,507.47,505.05,-8168,6620,-14532,1,0,0
33290,89729.00,507.47,505.16,-6872,11500,-14036,1,0,0
33324,89729.00,507.47,505.26,-6088,15164,-12668,1,0,0
33357,89729.00,507.47,505.35,-6684,16916,-11284,1,0,0
33392,89728.00,507.56,505.45,-7884,16268,-11264,1,0,0
33426,89728.00,507.56,505.54,-8256,13460,-12968,1,0,0
33460,89727.00,507.65,505.63,-7032,9220,-14560,1,0,0
33494,89726.00,507.74,505.72,-4816,4496,-15540,1,0,0
33527,89724.00,507.93,505.82,-2368,-788,-14760,1,0,0
33561,89722.00,508.12,505.92,-1516,-5328,-12256,1,0,0
33599,89720.00,508.30,506.02,-3460,-8284,-9980,1,0,0
33633,89720.00,508.30,506.12,-6188,-8100,-10400,1,0,0
33668,89719.00,508.40,506.22,-7768,-5416,-11468,1,0,0
33701,89720.00,508.30,506.31,-8136,-1588,-12636,1,0,0
33735,89719.00,508.40,506.40,-7476,2880,-13420,1,0,0
33769,89719.00,508.40,506.48,-6672,7436,-12848,1,0,0
33803,89719.00,508.40,506.57,-6988,11300,-11816,1,0,0
33837,89719.00,508.40,506.64,-8152,14020,-10688,1,0,0
33870,89718.00,508.49,506.72,-9132,15376,-11124,1,0,0
33908,89719.00,508.40,506.79,-9920,14432,-13364,1,0,0
33943,89719.00,508.40,506.86,-8372,10568,-15292,1,0,0
33977,89719.00,508.40,506.92,-4212,6548,-15436,1,0,0
34011,89718.00,508.49,506.98,-1380,2368,-14748,1,0,0
34044,89716.00,508.67,507.05,56,-2184,-11312,1,0,0
34078,89715.00,508.67,507.11,-1396,-6080,-7572,1,0,0
34112,89715.00,508.77,507.18,-6580,-6744,-6364,1,0,0
34146,89715.00,508.77,507.24,-10716,-5876,-9432,1,0,0
34180,89715.00,508.77,507.30,-10912,-2876,-11816,1,0,0
34213,89715.00,508.77,507.36,-7912,840,-13940,1,0,0
34251,89716.00,508.67,507.41,-6056,4000,-13804,1,0,0
34285,89717.00,508.58,507.45,-3140,4812,-12584,1,0,0
34319,89718.00,508.49,507.49,-4104,6000,-10984,1,0,0
34354,89718.00,508.49,507.53,-6428,6720,-9144,1,0,0
34387,89719.00,508.40,507.56,-7972,5264,-9208,1,0,0
34421,89719.00,508.40,507.59,-10528,5852,-12708,1,0,0
34455,89719.00,508.40,507.61,-7956,5432,-16496,1,0,0
34489,89719.00,508.40,507.64,-6248,3248,-17668,1,0,0
34523,89717.00,508.58,507.67,-1144,1644,-17536,1,0,0
34561,89717.00,508.58,507.70,2680,-1788,-13428,1,0,0
34594,89716.00,508.67,507.73,2984,-3976,-9108,1,0,0
34628,89716.00,508.67,507.76,-2760,-5268,-5468,1,0,0
34662,89718.00,508.49,507.79,32767,32767,-32768,1,0,0
34696,89808.00,500.13,507.54,-32768,32767,-32768,1,0,0
34731,89857.00,495.58,507.11,-21604,32767,-13404,1,0,0
34786,89887.00,492.79,506.12,-12632,32767,-19884,1,0,0
34862,89920.00,489.73,504.08,-18540,32767,-12400,1,0,0
